RÖNTEC GmbH Berlin, Germany
Quantax 1.2

Date: 26/11/2018 3:08:32 PM
Real time: 1004036
Life time: 1000000
Pulse density: 1371


Detector type: XFLASH
Window type: 
Detector thickness: 0.45
Si dead layer:0

Calibration, lin.: 5.004
Calibration, abs.: -484.3
Mn FWHM: 135.26
Fano factor: 0.11
Channels: 4096

Energy Counts
-0.4843      0
-0.4793      0
-0.4743      0
-0.4693      0
-0.4643      0
-0.4593      0
-0.4543      0
-0.4493      0
-0.4443      0
-0.4393      0
-0.4343      0
-0.4293      0
-0.4243      0
-0.4192      0
-0.4142      0
-0.4092      0
-0.4042      0
-0.3992      0
-0.3942      0
-0.3892      0
-0.3842      0
-0.3792      0
-0.3742      0
-0.3692      0
-0.3642      0
-0.3592      0
-0.3542      0
-0.3492      0
-0.3442      0
-0.3392      0
-0.3342      0
-0.3292      0
-0.3242      0
-0.3192      0
-0.3142      0
-0.3092      0
-0.3042      0
-0.2992      0
-0.2941      0
-0.2891      0
-0.2841      0
-0.2791      0
-0.2741      0
-0.2691      0
-0.2641      0
-0.2591      0
-0.2541      0
-0.2491      0
-0.2441      0
-0.2391      0
-0.2341      0
-0.2291      0
-0.2241      0
-0.2191      0
-0.2141      0
-0.2091      0
-0.2041      0
-0.1991      0
-0.1941      0
-0.1891      0
-0.1841      0
-0.1791      0
-0.1741      0
 -0.169      0
 -0.164      0
 -0.159      0
 -0.154      0
 -0.149      1
 -0.144      2
 -0.139      2
 -0.134     17
 -0.129     30
 -0.124     47
 -0.119     96
 -0.114    253
 -0.109    440
 -0.104    824
 -0.099   1650
 -0.094   3060
 -0.089   5361
 -0.084   9318
 -0.079  15636
 -0.074  25367
 -0.069  39586
 -0.064  59941
 -0.059  88484
 -0.054 126201
 -0.049 173200
-0.0439 232466
-0.0389 298963
-0.0339 373504
-0.0289 451491
-0.0239 528466
-0.0189 597339
-0.0139 656723
-0.0089 695747
-0.0039 715970
 0.0011 713067
 0.0061 686544
 0.0111 640413
 0.0161 579049
 0.0211 505137
 0.0261 429162
 0.0311 351662
 0.0361 279428
 0.0411 213688
 0.0461 160214
 0.0511 115419
 0.0561  80621
 0.0611  54091
 0.0661  35672
 0.0711  22651
 0.0761  14076
 0.0812   8326
 0.0862   4807
 0.0912   2657
 0.0962   1498
 0.1012    811
 0.1062    395
 0.1112    195
 0.1162     92
 0.1212     53
 0.1262     29
 0.1312     11
 0.1362      8
 0.1412      3
 0.1462      1
 0.1512      1
 0.1562      2
 0.1612      4
 0.1662      1
 0.1712      4
 0.1762      1
 0.1812      2
 0.1862      1
 0.1912      2
 0.1962      3
 0.2012      2
 0.2063      2
 0.2113      1
 0.2163      1
 0.2213      2
 0.2263      0
 0.2313      1
 0.2363      3
 0.2413      0
 0.2463      0
 0.2513      0
 0.2563      1
 0.2613      0
 0.2663      0
 0.2713      0
 0.2763      0
 0.2813      0
 0.2863      0
 0.2913      0
 0.2963      0
 0.3013      1
 0.3063      0
 0.3113      0
 0.3163      0
 0.3213      0
 0.3263      1
 0.3314      2
 0.3364     11
 0.3414     43
 0.3464     58
 0.3514     96
 0.3564    122
 0.3614    102
 0.3664     97
 0.3714     96
 0.3764    124
 0.3814    109
 0.3864    102
 0.3914    106
 0.3964     87
 0.4014     81
 0.4064     87
 0.4114    102
 0.4164     95
 0.4214     99
 0.4264    120
 0.4314     99
 0.4364     95
 0.4414     93
 0.4464     73
 0.4514     91
 0.4565     94
 0.4615     92
 0.4665     95
 0.4715     98
 0.4765     95
 0.4815     77
 0.4865     96
 0.4915     90
 0.4965    106
 0.5015     96
 0.5065     86
 0.5115     91
 0.5165     92
 0.5215     83
 0.5265     82
 0.5315    102
 0.5365     83
 0.5415     84
 0.5465     77
 0.5515     92
 0.5565     83
 0.5615     84
 0.5665    101
 0.5715     89
 0.5765     73
 0.5816     84
 0.5866     80
 0.5916     86
 0.5966     87
 0.6016     96
 0.6066     96
 0.6116     77
 0.6166     79
 0.6216     81
 0.6266     83
 0.6316    108
 0.6366     96
 0.6416     82
 0.6466     80
 0.6516     80
 0.6566     68
 0.6616     84
 0.6666     75
 0.6716     83
 0.6766     79
 0.6816     77
 0.6866     79
 0.6916     82
 0.6966     99
 0.7016     74
 0.7067     77
 0.7117     69
 0.7167     71
 0.7217     75
 0.7267     65
 0.7317     70
 0.7367     68
 0.7417     75
 0.7467     64
 0.7517     78
 0.7567     97
 0.7617     89
 0.7667     89
 0.7717     85
 0.7767     82
 0.7817     76
 0.7867     68
 0.7917     62
 0.7967     62
 0.8017     72
 0.8067     61
 0.8117     80
 0.8167     71
 0.8217     84
 0.8267     76
 0.8318     80
 0.8368     87
 0.8418     98
 0.8468     68
 0.8518     88
 0.8568     56
 0.8618     69
 0.8668     70
 0.8718     71
 0.8768     65
 0.8818     68
 0.8868     81
 0.8918     79
 0.8968     71
 0.9018     78
 0.9068     63
 0.9118     74
 0.9168     62
 0.9218     73
 0.9268     70
 0.9318     87
 0.9368     62
 0.9418     82
 0.9468     67
 0.9518     79
 0.9569     66
 0.9619     75
 0.9669     59
 0.9719     62
 0.9769     65
 0.9819     60
 0.9869     55
 0.9919     71
 0.9969     64
 1.0019     71
 1.0069     58
 1.0119     55
 1.0169     84
 1.0219     71
 1.0269     69
 1.0319     54
 1.0369     51
 1.0419     50
 1.0469     49
 1.0519     76
 1.0569     65
 1.0619     67
 1.0669     67
 1.0719     66
 1.0769     54
  1.082     64
  1.087     71
  1.092     57
  1.097     44
  1.102     73
  1.107     55
  1.112     60
  1.117     69
  1.122     52
  1.127     54
  1.132     78
  1.137     70
  1.142     61
  1.147     59
  1.152     65
  1.157     62
  1.162     69
  1.167     57
  1.172     45
  1.177     58
  1.182     57
  1.187     69
  1.192     49
  1.197     60
  1.202     46
 1.2071     61
 1.2121     57
 1.2171     48
 1.2221     55
 1.2271     56
 1.2321     58
 1.2371     66
 1.2421     65
 1.2471     73
 1.2521     58
 1.2571     48
 1.2621     70
 1.2671     58
 1.2721     67
 1.2771     61
 1.2821     60
 1.2871     65
 1.2921     54
 1.2971     52
 1.3021     63
 1.3071     42
 1.3121     59
 1.3171     59
 1.3221     47
 1.3271     66
 1.3322     52
 1.3372     52
 1.3422     53
 1.3472     59
 1.3522     53
 1.3572     61
 1.3622     52
 1.3672     48
 1.3722     68
 1.3772     46
 1.3822     49
 1.3872     54
 1.3922     63
 1.3972     53
 1.4022     56
 1.4072     55
 1.4122     59
 1.4172     49
 1.4222     65
 1.4272     68
 1.4322     49
 1.4372     51
 1.4422     49
 1.4472     71
 1.4522     64
 1.4573     62
 1.4623     75
 1.4673     61
 1.4723     78
 1.4773     67
 1.4823     61
 1.4873     56
 1.4923     57
 1.4973     64
 1.5023     61
 1.5073     72
 1.5123     85
 1.5173     70
 1.5223     76
 1.5273     74
 1.5323     60
 1.5373     59
 1.5423     67
 1.5473     60
 1.5523     67
 1.5573     82
 1.5623     69
 1.5673     80
 1.5723     96
 1.5773     76
 1.5824     87
 1.5874     77
 1.5924     92
 1.5974     82
 1.6024     80
 1.6074    115
 1.6124    110
 1.6174    110
 1.6224    147
 1.6274    132
 1.6324    158
 1.6374    218
 1.6424    268
 1.6474    323
 1.6524    435
 1.6574    575
 1.6624    679
 1.6674    873
 1.6724   1050
 1.6774   1313
 1.6824   1525
 1.6874   1925
 1.6924   2206
 1.6974   2543
 1.7024   2981
 1.7075   3331
 1.7125   3707
 1.7175   4087
 1.7225   4256
 1.7275   4400
 1.7325   4551
 1.7375   4748
 1.7425   4770
 1.7475   4717
 1.7525   4705
 1.7575   4491
 1.7625   4180
 1.7675   3830
 1.7725   3676
 1.7775   3299
 1.7825   2838
 1.7875   2487
 1.7925   2300
 1.7975   1872
 1.8025   1561
 1.8075   1304
 1.8125   1146
 1.8175    957
 1.8225    841
 1.8275    691
 1.8326    604
 1.8376    494
 1.8426    473
 1.8476    409
 1.8526    340
 1.8576    284
 1.8626    302
 1.8676    217
 1.8726    220
 1.8776    156
 1.8826    180
 1.8876    169
 1.8926    171
 1.8976    124
 1.9026    119
 1.9076    110
 1.9126     83
 1.9176     96
 1.9226     73
 1.9276     50
 1.9326     57
 1.9376     52
 1.9426     57
 1.9476     62
 1.9526     47
 1.9577     64
 1.9627     53
 1.9677     41
 1.9727     34
 1.9777     35
 1.9827     33
 1.9877     35
 1.9927     34
 1.9977     40
 2.0027     41
 2.0077     27
 2.0127     37
 2.0177     37
 2.0227     43
 2.0277     35
 2.0327     36
 2.0377     48
 2.0427     37
 2.0477     41
 2.0527     37
 2.0577     35
 2.0627     32
 2.0677     34
 2.0727     38
 2.0777     33
 2.0828     31
 2.0878     37
 2.0928     32
 2.0978     29
 2.1028     28
 2.1078     37
 2.1128     28
 2.1178     35
 2.1228     35
 2.1278     36
 2.1328     25
 2.1378     36
 2.1428     29
 2.1478     29
 2.1528     34
 2.1578     25
 2.1628     32
 2.1678     25
 2.1728     24
 2.1778     36
 2.1828     29
 2.1878     36
 2.1928     34
 2.1978     35
 2.2028     35
 2.2079     40
 2.2129     21
 2.2179     35
 2.2229     33
 2.2279     27
 2.2329     41
 2.2379     33
 2.2429     39
 2.2479     29
 2.2529     23
 2.2579     35
 2.2629     41
 2.2679     38
 2.2729     52
 2.2779     61
 2.2829     50
 2.2879     64
 2.2929     62
 2.2979     65
 2.3029     62
 2.3079     62
 2.3129     62
 2.3179     82
 2.3229     77
 2.3279     81
  2.333     81
  2.338     88
  2.343    100
  2.348     82
  2.353     91
  2.358    108
  2.363     92
  2.368     87
  2.373     98
  2.378    108
  2.383    110
  2.388    103
  2.393    100
  2.398     99
  2.403    111
  2.408     86
  2.413    105
  2.418    104
  2.423     97
  2.428     88
  2.433     98
  2.438     92
  2.443     90
  2.448     90
  2.453     85
 2.4581     80
 2.4631     85
 2.4681     99
 2.4731     77
 2.4781     82
 2.4831     74
 2.4881     76
 2.4931     81
 2.4981     56
 2.5031     61
 2.5081     69
 2.5131     54
 2.5181     66
 2.5231     47
 2.5281     57
 2.5331     44
 2.5381     60
 2.5431     64
 2.5481     45
 2.5531     56
 2.5581     39
 2.5631     51
 2.5681     52
 2.5731     53
 2.5781     45
 2.5832     39
 2.5882     60
 2.5932     64
 2.5982     60
 2.6032     62
 2.6082     67
 2.6132     75
 2.6182     80
 2.6232     72
 2.6282     72
 2.6332     63
 2.6382     78
 2.6432     62
 2.6482     64
 2.6532     59
 2.6582     63
 2.6632     69
 2.6682     43
 2.6732     42
 2.6782     59
 2.6832     54
 2.6882     45
 2.6932     36
 2.6982     37
 2.7032     43
 2.7083     33
 2.7133     49
 2.7183     28
 2.7233     27
 2.7283     29
 2.7333     34
 2.7383     31
 2.7433     32
 2.7483     30
 2.7533     25
 2.7583     34
 2.7633     23
 2.7683     33
 2.7733     34
 2.7783     30
 2.7833     30
 2.7883     32
 2.7933     31
 2.7983     29
 2.8033     30
 2.8083     35
 2.8133     33
 2.8183     31
 2.8233     33
 2.8283     40
 2.8334     43
 2.8384     45
 2.8434     40
 2.8484     58
 2.8534     56
 2.8584     65
 2.8634     69
 2.8684     72
 2.8734     68
 2.8784     77
 2.8834     83
 2.8884    105
 2.8934    118
 2.8984    146
 2.9034    175
 2.9084    186
 2.9134    214
 2.9184    222
 2.9234    240
 2.9284    257
 2.9334    259
 2.9384    284
 2.9434    298
 2.9484    307
 2.9534    309
 2.9585    343
 2.9635    320
 2.9685    304
 2.9735    310
 2.9785    282
 2.9835    270
 2.9885    301
 2.9935    232
 2.9985    230
 3.0035    207
 3.0085    205
 3.0135    168
 3.0185    148
 3.0235    119
 3.0285    144
 3.0335    114
 3.0385    104
 3.0435     72
 3.0485     81
 3.0535     60
 3.0585     66
 3.0635     62
 3.0685     40
 3.0735     48
 3.0785     56
 3.0836     39
 3.0886     51
 3.0936     41
 3.0986     58
 3.1036     38
 3.1086     66
 3.1136     65
 3.1186     72
 3.1236     72
 3.1286     66
 3.1336     76
 3.1386     66
 3.1436     80
 3.1486     61
 3.1536     73
 3.1586     85
 3.1636     79
 3.1686     98
 3.1736     87
 3.1786     86
 3.1836     81
 3.1886     86
 3.1936     76
 3.1986     84
 3.2036     92
 3.2087     62
 3.2137     85
 3.2187     64
 3.2237     66
 3.2287     63
 3.2337     62
 3.2387     63
 3.2437     71
 3.2487     88
 3.2537     68
 3.2587     70
 3.2637     77
 3.2687     81
 3.2737     76
 3.2787     96
 3.2837     98
 3.2887     83
 3.2937    104
 3.2987    128
 3.3037    113
 3.3087    124
 3.3137    110
 3.3187    108
 3.3237     99
 3.3287    113
 3.3338    109
 3.3388    125
 3.3438     95
 3.3488    109
 3.3538    111
 3.3588     66
 3.3638     83
 3.3688     95
 3.3738     64
 3.3788     73
 3.3838     65
 3.3888     66
 3.3938     58
 3.3988     55
 3.4038     48
 3.4088     56
 3.4138     44
 3.4188     35
 3.4238     35
 3.4288     30
 3.4338     35
 3.4388     36
 3.4438     27
 3.4488     27
 3.4538     28
 3.4589     18
 3.4639     28
 3.4689     29
 3.4739     27
 3.4789     32
 3.4839     23
 3.4889     26
 3.4939     24
 3.4989     21
 3.5039     28
 3.5089     25
 3.5139     26
 3.5189     29
 3.5239     25
 3.5289     22
 3.5339     25
 3.5389     31
 3.5439     30
 3.5489     32
 3.5539     40
 3.5589     37
 3.5639     38
 3.5689     39
 3.5739     33
 3.5789     41
  3.584     38
  3.589     51
  3.594     46
  3.599     54
  3.604     45
  3.609     52
  3.614     66
  3.619     69
  3.624     80
  3.629     89
  3.634     98
  3.639    107
  3.644     99
  3.649     84
  3.654    100
  3.659    123
  3.664    115
  3.669    132
  3.674    146
  3.679    149
  3.684    177
  3.689    167
  3.694    163
  3.699    151
  3.704    140
 3.7091    147
 3.7141    151
 3.7191    144
 3.7241    151
 3.7291    127
 3.7341     99
 3.7391    112
 3.7441     93
 3.7491     90
 3.7541     85
 3.7591     73
 3.7641     64
 3.7691     60
 3.7741     58
 3.7791     53
 3.7841     42
 3.7891     36
 3.7941     36
 3.7991     41
 3.8041     25
 3.8091     27
 3.8141     31
 3.8191     22
 3.8241     19
 3.8291     22
 3.8342     18
 3.8392     23
 3.8442     22
 3.8492     21
 3.8542     24
 3.8592     16
 3.8642     25
 3.8692     17
 3.8742     16
 3.8792     10
 3.8842     23
 3.8892     25
 3.8942     22
 3.8992     30
 3.9042     23
 3.9092     26
 3.9142     19
 3.9192     23
 3.9242     22
 3.9292     25
 3.9342     31
 3.9392     36
 3.9442     29
 3.9492     29
 3.9542     28
 3.9593     36
 3.9643     33
 3.9693     35
 3.9743     24
 3.9793     41
 3.9843     37
 3.9893     27
 3.9943     38
 3.9993     45
 4.0043     34
 4.0093     38
 4.0143     41
 4.0193     46
 4.0243     29
 4.0293     43
 4.0343     35
 4.0393     36
 4.0443     27
 4.0493     33
 4.0543     38
 4.0593     21
 4.0643     29
 4.0693     31
 4.0743     27
 4.0793     19
 4.0844     29
 4.0894     23
 4.0944     19
 4.0994     20
 4.1044     29
 4.1094     23
 4.1144     24
 4.1194     30
 4.1244     13
 4.1294     30
 4.1344     21
 4.1394     29
 4.1444     21
 4.1494     22
 4.1544     22
 4.1594     24
 4.1644     29
 4.1694     19
 4.1744     17
 4.1794     34
 4.1844     27
 4.1894     28
 4.1944     38
 4.1994     35
 4.2044     36
 4.2095     45
 4.2145     40
 4.2195     37
 4.2245     45
 4.2295     61
 4.2345     68
 4.2395     69
 4.2445     57
 4.2495     77
 4.2545     70
 4.2595     74
 4.2645     85
 4.2695     93
 4.2745     84
 4.2795    103
 4.2845     89
 4.2895     77
 4.2945    113
 4.2995     81
 4.3045     84
 4.3095     77
 4.3145     93
 4.3195     70
 4.3245     80
 4.3295     70
 4.3346     63
 4.3396     69
 4.3446     58
 4.3496     61
 4.3546     49
 4.3596     61
 4.3646     38
 4.3696     39
 4.3746     49
 4.3796     41
 4.3846     26
 4.3896     29
 4.3946     29
 4.3996     28
 4.4046     18
 4.4096     27
 4.4146     38
 4.4196     24
 4.4246     30
 4.4296     24
 4.4346     23
 4.4396     27
 4.4446     24
 4.4496     20
 4.4546     29
 4.4597     21
 4.4647     27
 4.4697     34
 4.4747     25
 4.4797     39
 4.4847     34
 4.4897     27
 4.4947     31
 4.4997     24
 4.5047     32
 4.5097     30
 4.5147     39
 4.5197     34
 4.5247     29
 4.5297     39
 4.5347     43
 4.5397     32
 4.5447     40
 4.5497     35
 4.5547     64
 4.5597     48
 4.5647     42
 4.5697     46
 4.5747     59
 4.5797     64
 4.5848     51
 4.5898     52
 4.5948     73
 4.5998     68
 4.6048     70
 4.6098     89
 4.6148     82
 4.6198     85
 4.6248     74
 4.6298     87
 4.6348     75
 4.6398     66
 4.6448     81
 4.6498     83
 4.6548     81
 4.6598     71
 4.6648     92
 4.6698     66
 4.6748     76
 4.6798     72
 4.6848     75
 4.6898     63
 4.6948     61
 4.6998     64
 4.7048     65
 4.7099     54
 4.7149     54
 4.7199     62
 4.7249     55
 4.7299     44
 4.7349     53
 4.7399     45
 4.7449     58
 4.7499     40
 4.7549     39
 4.7599     37
 4.7649     30
 4.7699     37
 4.7749     24
 4.7799     30
 4.7849     40
 4.7899     32
 4.7949     27
 4.7999     29
 4.8049     22
 4.8099     28
 4.8149     21
 4.8199     35
 4.8249     22
 4.8299     29
  4.835     30
   4.84     31
  4.845     21
   4.85     34
  4.855     30
   4.86     34
  4.865     23
   4.87     31
  4.875     25
   4.88     21
  4.885     37
   4.89     25
  4.895     34
    4.9     29
  4.905     19
   4.91     34
  4.915     30
   4.92     31
  4.925     39
   4.93     30
  4.935     39
   4.94     27
  4.945     32
   4.95     31
  4.955     36
 4.9601     26
 4.9651     28
 4.9701     25
 4.9751     37
 4.9801     30
 4.9851     26
 4.9901     31
 4.9951     23
 5.0001     19
 5.0051     31
 5.0101     15
 5.0151     22
 5.0201     24
 5.0251     26
 5.0301     17
 5.0351     17
 5.0401     15
 5.0451     11
 5.0501     16
 5.0551     22
 5.0601     13
 5.0651     16
 5.0701     19
 5.0751     15
 5.0801     17
 5.0852     20
 5.0902     17
 5.0952     17
 5.1002     15
 5.1052     15
 5.1102     18
 5.1152     12
 5.1202     12
 5.1252     14
 5.1302     17
 5.1352     16
 5.1402     18
 5.1452     19
 5.1502     15
 5.1552     24
 5.1602     15
 5.1652     23
 5.1702     11
 5.1752     15
 5.1802     13
 5.1852     21
 5.1902     18
 5.1952     10
 5.2002     22
 5.2052     15
 5.2103     16
 5.2153     17
 5.2203     29
 5.2253     20
 5.2303     22
 5.2353     22
 5.2403     24
 5.2453     26
 5.2503     29
 5.2553     21
 5.2603     21
 5.2653     26
 5.2703     34
 5.2753     29
 5.2803     18
 5.2853     20
 5.2903     22
 5.2953     24
 5.3003     26
 5.3053     29
 5.3103     25
 5.3153     26
 5.3203     22
 5.3253     19
 5.3303     15
 5.3354     12
 5.3404     19
 5.3454     14
 5.3504     15
 5.3554     19
 5.3604     15
 5.3654     16
 5.3704     16
 5.3754     19
 5.3804     19
 5.3854     21
 5.3904     10
 5.3954     16
 5.4004     13
 5.4054     17
 5.4104     14
 5.4154     13
 5.4204     18
 5.4254     14
 5.4304     17
 5.4354     12
 5.4404     13
 5.4454     14
 5.4504     15
 5.4554     18
 5.4605     10
 5.4655     14
 5.4705     20
 5.4755     19
 5.4805     12
 5.4855     11
 5.4905     11
 5.4955     18
 5.5005     19
 5.5055     21
 5.5105     20
 5.5155     20
 5.5205     14
 5.5255     22
 5.5305     24
 5.5355     14
 5.5405     19
 5.5455     22
 5.5505     12
 5.5555     18
 5.5605     22
 5.5655     20
 5.5705     13
 5.5755     11
 5.5805     22
 5.5856     19
 5.5906     16
 5.5956     13
 5.6006     22
 5.6056     14
 5.6106     15
 5.6156     19
 5.6206     17
 5.6256     13
 5.6306     10
 5.6356     12
 5.6406     13
 5.6456     16
 5.6506     10
 5.6556      7
 5.6606     13
 5.6656     11
 5.6706     13
 5.6756     15
 5.6806     14
 5.6856     14
 5.6906     12
 5.6956     13
 5.7006     13
 5.7056     10
 5.7107      6
 5.7157     17
 5.7207     14
 5.7257     13
 5.7307      4
 5.7357     13
 5.7407     14
 5.7457     12
 5.7507      7
 5.7557     11
 5.7607     12
 5.7657     11
 5.7707      8
 5.7757     15
 5.7807     18
 5.7857      8
 5.7907     14
 5.7957     15
 5.8007     14
 5.8057     12
 5.8107     13
 5.8157      9
 5.8207     12
 5.8257     17
 5.8307     14
 5.8358      8
 5.8408     13
 5.8458     16
 5.8508     11
 5.8558     10
 5.8608      9
 5.8658     12
 5.8708     10
 5.8758     14
 5.8808     10
 5.8858     15
 5.8908     14
 5.8958     18
 5.9008     15
 5.9058     10
 5.9108     18
 5.9158     15
 5.9208     13
 5.9258     10
 5.9308      8
 5.9358      6
 5.9408     16
 5.9458     14
 5.9508     15
 5.9558     11
 5.9609      8
 5.9659     10
 5.9709     15
 5.9759      6
 5.9809     12
 5.9859     14
 5.9909      9
 5.9959     10
 6.0009     14
 6.0059      8
 6.0109     12
 6.0159      9
 6.0209     10
 6.0259     11
 6.0309      6
 6.0359      7
 6.0409      9
 6.0459      8
 6.0509      6
 6.0559      8
 6.0609      8
 6.0659      4
 6.0709     16
 6.0759      6
 6.0809      7
  6.086      6
  6.091      7
  6.096      4
  6.101      9
  6.106      8
  6.111      7
  6.116     12
  6.121      6
  6.126     10
  6.131     11
  6.136     10
  6.141      6
  6.146      7
  6.151     10
  6.156      7
  6.161      7
  6.166      6
  6.171      7
  6.176      5
  6.181      7
  6.186     14
  6.191     10
  6.196      6
  6.201     10
  6.206      7
 6.2111     10
 6.2161      5
 6.2211     10
 6.2261     13
 6.2311     14
 6.2361     13
 6.2411      8
 6.2461     15
 6.2511     23
 6.2561     23
 6.2611     19
 6.2661     17
 6.2711     16
 6.2761     22
 6.2811     40
 6.2861     23
 6.2911     32
 6.2961     35
 6.3011     34
 6.3061     38
 6.3111     48
 6.3161     62
 6.3211     67
 6.3261     80
 6.3311     68
 6.3362     91
 6.3412     77
 6.3462     95
 6.3512     92
 6.3562    109
 6.3612    102
 6.3662    107
 6.3712    118
 6.3762    138
 6.3812    138
 6.3862    144
 6.3912    137
 6.3962    158
 6.4012    164
 6.4062    144
 6.4112    135
 6.4162    128
 6.4212    121
 6.4262    136
 6.4312    130
 6.4362    128
 6.4412     96
 6.4462    110
 6.4512     97
 6.4562     72
 6.4613     91
 6.4663     69
 6.4713     81
 6.4763     61
 6.4813     47
 6.4863     66
 6.4913     53
 6.4963     54
 6.5013     44
 6.5063     29
 6.5113     23
 6.5163     29
 6.5213     29
 6.5263     19
 6.5313     22
 6.5363     17
 6.5413     19
 6.5463     17
 6.5513     16
 6.5563     14
 6.5613     12
 6.5663      9
 6.5713     12
 6.5763      6
 6.5813     10
 6.5864      8
 6.5914      4
 6.5964      5
 6.6014      8
 6.6064      6
 6.6114      9
 6.6164     13
 6.6214      8
 6.6264      8
 6.6314      8
 6.6364      3
 6.6414      8
 6.6464      7
 6.6514     10
 6.6564      6
 6.6614      8
 6.6664      5
 6.6714      9
 6.6764      4
 6.6814      6
 6.6864      8
 6.6914     11
 6.6964      6
 6.7014      4
 6.7064      6
 6.7115      4
 6.7165      5
 6.7215      5
 6.7265      8
 6.7315      9
 6.7365     10
 6.7415      7
 6.7465      7
 6.7515      6
 6.7565     13
 6.7615      6
 6.7665     13
 6.7715      6
 6.7765      7
 6.7815      6
 6.7865      6
 6.7915     11
 6.7965      6
 6.8015      7
 6.8065      9
 6.8115      7
 6.8165      5
 6.8215      5
 6.8265      9
 6.8315     11
 6.8366      8
 6.8416      9
 6.8466      5
 6.8516      7
 6.8566      9
 6.8616      8
 6.8666      8
 6.8716      5
 6.8766      8
 6.8816     11
 6.8866      9
 6.8916     10
 6.8966     10
 6.9016     11
 6.9066     11
 6.9116      7
 6.9166      8
 6.9216      8
 6.9266     15
 6.9316     13
 6.9366      5
 6.9416      8
 6.9466     15
 6.9516     12
 6.9566     14
 6.9617     12
 6.9667     13
 6.9717     22
 6.9767     16
 6.9817     20
 6.9867     14
 6.9917     19
 6.9967     32
 7.0017     15
 7.0067      8
 7.0117     17
 7.0167     19
 7.0217     19
 7.0267     25
 7.0317     22
 7.0367     24
 7.0417     32
 7.0467     26
 7.0517     27
 7.0567     25
 7.0617     26
 7.0667     22
 7.0717     27
 7.0767     28
 7.0817     25
 7.0868     14
 7.0918     28
 7.0968     14
 7.1018     22
 7.1068     19
 7.1118     10
 7.1168     24
 7.1218     15
 7.1268     14
 7.1318     16
 7.1368     21
 7.1418     15
 7.1468     17
 7.1518     11
 7.1568     10
 7.1618     13
 7.1668      7
 7.1718     10
 7.1768      8
 7.1818      5
 7.1868     11
 7.1918     11
 7.1968      5
 7.2018     13
 7.2068      7
 7.2119      2
 7.2169      8
 7.2219      7
 7.2269      7
 7.2319      8
 7.2369     10
 7.2419      5
 7.2469      4
 7.2519      6
 7.2569      5
 7.2619     13
 7.2669     10
 7.2719      6
 7.2769      3
 7.2819      5
 7.2869      9
 7.2919     11
 7.2969      5
 7.3019      6
 7.3069      4
 7.3119      4
 7.3169      8
 7.3219      4
 7.3269      8
 7.3319      5
  7.337      8
  7.342      7
  7.347      7
  7.352     12
  7.357      9
  7.362      3
  7.367      7
  7.372      5
  7.377     10
  7.382      7
  7.387      7
  7.392     12
  7.397      9
  7.402      7
  7.407      9
  7.412     10
  7.417     11
  7.422     11
  7.427     17
  7.432     11
  7.437     13
  7.442      8
  7.447     14
  7.452     14
  7.457     11
 7.4621     14
 7.4671     16
 7.4721     12
 7.4771     15
 7.4821      8
 7.4871     13
 7.4921     10
 7.4971      7
 7.5021     14
 7.5071     15
 7.5121     16
 7.5171     11
 7.5221     14
 7.5271     13
 7.5321      9
 7.5371      8
 7.5421      4
 7.5471     10
 7.5521      9
 7.5571     12
 7.5621      9
 7.5671      8
 7.5721      7
 7.5771      6
 7.5821     10
 7.5872      7
 7.5922      9
 7.5972      9
 7.6022      8
 7.6072      7
 7.6122      5
 7.6172      7
 7.6222     11
 7.6272      7
 7.6322      2
 7.6372      9
 7.6422      8
 7.6472      6
 7.6522      8
 7.6572      9
 7.6622      7
 7.6672      5
 7.6722      7
 7.6772      2
 7.6822      2
 7.6872      4
 7.6922      7
 7.6972      3
 7.7022      8
 7.7072      6
 7.7123      7
 7.7173      7
 7.7223      8
 7.7273      3
 7.7323      6
 7.7373      4
 7.7423      9
 7.7473      9
 7.7523      9
 7.7573      4
 7.7623      9
 7.7673      4
 7.7723      6
 7.7773      4
 7.7823     10
 7.7873     11
 7.7923      5
 7.7973      6
 7.8023      7
 7.8073      4
 7.8123      4
 7.8173      2
 7.8223      9
 7.8273      9
 7.8323      3
 7.8374      6
 7.8424      7
 7.8474     10
 7.8524      5
 7.8574      6
 7.8624      4
 7.8674      7
 7.8724      7
 7.8774      7
 7.8824     13
 7.8874      4
 7.8924     13
 7.8974      9
 7.9024     15
 7.9074      7
 7.9124     17
 7.9174      6
 7.9224      9
 7.9274     15
 7.9324     16
 7.9374     19
 7.9424     21
 7.9474     11
 7.9524     13
 7.9574     22
 7.9625     21
 7.9675     31
 7.9725     17
 7.9775     17
 7.9825     21
 7.9875     27
 7.9925     24
 7.9975     29
 8.0025     13
 8.0075     24
 8.0125     28
 8.0175     26
 8.0225     30
 8.0275     26
 8.0325     18
 8.0375     23
 8.0425     33
 8.0475     26
 8.0525     31
 8.0575     26
 8.0625     22
 8.0675     29
 8.0725     21
 8.0775     25
 8.0825     18
 8.0876     18
 8.0926     20
 8.0976     20
 8.1026     16
 8.1076     17
 8.1126     13
 8.1176     17
 8.1226     16
 8.1276     14
 8.1326     14
 8.1376     12
 8.1426     20
 8.1476     12
 8.1526      3
 8.1576      8
 8.1626     14
 8.1676     10
 8.1726     10
 8.1776     12
 8.1826      6
 8.1876      7
 8.1926      8
 8.1976     12
 8.2026     11
 8.2076      7
 8.2127      5
 8.2177     12
 8.2227      6
 8.2277      8
 8.2327      7
 8.2377      9
 8.2427      5
 8.2477      4
 8.2527      8
 8.2577      4
 8.2627      9
 8.2677     15
 8.2727      6
 8.2777      7
 8.2827     11
 8.2877      5
 8.2927      3
 8.2977     12
 8.3027     11
 8.3077      7
 8.3127     10
 8.3177      9
 8.3227      8
 8.3277      8
 8.3327      6
 8.3378      8
 8.3428     13
 8.3478      6
 8.3528     10
 8.3578      7
 8.3628      8
 8.3678      8
 8.3728      9
 8.3778     11
 8.3828      7
 8.3878      6
 8.3928      5
 8.3978      5
 8.4028     15
 8.4078      8
 8.4128     14
 8.4178      8
 8.4228     11
 8.4278     14
 8.4328     16
 8.4378     13
 8.4428     17
 8.4478     22
 8.4528     11
 8.4578     18
 8.4629     27
 8.4679     25
 8.4729     24
 8.4779     22
 8.4829     41
 8.4879     35
 8.4929     31
 8.4979     37
 8.5029     46
 8.5079     51
 8.5129     45
 8.5179     57
 8.5229     62
 8.5279     82
 8.5329     79
 8.5379     90
 8.5429    107
 8.5479    118
 8.5529    114
 8.5579    113
 8.5629    129
 8.5679    112
 8.5729    153
 8.5779    155
 8.5829    177
  8.588    184
  8.593    184
  8.598    192
  8.603    175
  8.608    212
  8.613    193
  8.618    199
  8.623    203
  8.628    207
  8.633    197
  8.638    218
  8.643    190
  8.648    216
  8.653    206
  8.658    209
  8.663    185
  8.668    156
  8.673    185
  8.678    160
  8.683    144
  8.688    148
  8.693    152
  8.698    163
  8.703    129
  8.708    123
 8.7131    123
 8.7181     88
 8.7231     92
 8.7281     63
 8.7331     89
 8.7381     66
 8.7431     58
 8.7481     60
 8.7531     50
 8.7581     48
 8.7631     44
 8.7681     50
 8.7731     25
 8.7781     39
 8.7831     20
 8.7881     37
 8.7931     34
 8.7981     29
 8.8031     24
 8.8081     21
 8.8131     19
 8.8181     31
 8.8231     18
 8.8281     18
 8.8331     25
 8.8382     19
 8.8432     21
 8.8482     21
 8.8532     11
 8.8582     22
 8.8632     18
 8.8682     17
 8.8732     11
 8.8782     20
 8.8832     23
 8.8882     18
 8.8932     13
 8.8982     21
 8.9032     18
 8.9082     21
 8.9132     14
 8.9182     19
 8.9232     14
 8.9282     17
 8.9332     23
 8.9382     16
 8.9432     14
 8.9482     19
 8.9532     21
 8.9582     19
 8.9633     22
 8.9683     18
 8.9733     20
 8.9783     19
 8.9833     20
 8.9883     29
 8.9933     28
 8.9983     17
 9.0033     20
 9.0083     22
 9.0133     21
 9.0183     28
 9.0233     32
 9.0283     44
 9.0333     37
 9.0383     42
 9.0433     43
 9.0483     51
 9.0533     50
 9.0583     65
 9.0633     76
 9.0683    110
 9.0733    115
 9.0783    110
 9.0833    143
 9.0884    156
 9.0934    196
 9.0984    216
 9.1034    263
 9.1084    255
 9.1134    281
 9.1184    334
 9.1234    376
 9.1284    460
 9.1334    423
 9.1384    481
 9.1434    587
 9.1484    623
 9.1534    686
 9.1584    688
 9.1634    781
 9.1684    822
 9.1734    855
 9.1784    971
 9.1834   1030
 9.1884   1066
 9.1934   1127
 9.1984   1092
 9.2034   1257
 9.2084   1249
 9.2135   1279
 9.2185   1328
 9.2235   1340
 9.2285   1370
 9.2335   1335
 9.2385   1330
 9.2435   1444
 9.2485   1434
 9.2535   1333
 9.2585   1367
 9.2635   1270
 9.2685   1279
 9.2735   1253
 9.2785   1138
 9.2835   1111
 9.2885   1111
 9.2935   1036
 9.2985    984
 9.3035    960
 9.3085    896
 9.3135    805
 9.3185    764
 9.3235    725
 9.3285    648
 9.3335    583
 9.3386    519
 9.3436    498
 9.3486    433
 9.3536    370
 9.3586    364
 9.3636    331
 9.3686    274
 9.3736    260
 9.3786    201
 9.3836    181
 9.3886    153
 9.3936    154
 9.3986    115
 9.4036    109
 9.4086     92
 9.4136     83
 9.4186     77
 9.4236     67
 9.4286     60
 9.4336     39
 9.4386     39
 9.4436     44
 9.4486     29
 9.4536     31
 9.4586     34
 9.4637     25
 9.4687     32
 9.4737     29
 9.4787     28
 9.4837     27
 9.4887     30
 9.4937     20
 9.4987     36
 9.5037     28
 9.5087     36
 9.5137     26
 9.5187     37
 9.5237     29
 9.5287     25
 9.5337     24
 9.5387     30
 9.5437     29
 9.5487     35
 9.5537     25
 9.5587     39
 9.5637     36
 9.5687     32
 9.5737     41
 9.5787     46
 9.5837     26
 9.5888     34
 9.5938     32
 9.5988     35
 9.6038     29
 9.6088     34
 9.6138     40
 9.6188     16
 9.6238     29
 9.6288     39
 9.6338     28
 9.6388     31
 9.6438     28
 9.6488     24
 9.6538     23
 9.6588     22
 9.6638     22
 9.6688     17
 9.6738     18
 9.6788     20
 9.6838     13
 9.6888     20
 9.6938      6
 9.6988     15
 9.7038     22
 9.7088     17
 9.7139     11
 9.7189     12
 9.7239     11
 9.7289     12
 9.7339      9
 9.7389     16
 9.7439     14
 9.7489      8
 9.7539     16
 9.7589     13
 9.7639     11
 9.7689     16
 9.7739     14
 9.7789      9
 9.7839     11
 9.7889     16
 9.7939      9
 9.7989     14
 9.8039      7
 9.8089     14
 9.8139     16
 9.8189     11
 9.8239     20
 9.8289     16
 9.8339     13
  9.839      8
  9.844     20
  9.849     15
  9.854     14
  9.859     16
  9.864     15
  9.869      9
  9.874     13
  9.879      8
  9.884     13
  9.889     11
  9.894     14
  9.899     14
  9.904     17
  9.909     19
  9.914     11
  9.919     15
  9.924     16
  9.929     14
  9.934     16
  9.939     18
  9.944     14
  9.949     21
  9.954     19
  9.959     17
 9.9641     21
 9.9691     17
 9.9741     24
 9.9791     15
 9.9841     16
 9.9891     14
 9.9941     20
 9.9991     19
10.0041     21
10.0091     17
10.0141     22
10.0191     23
10.0241     28
10.0291     25
10.0341     11
10.0391     13
10.0441     22
10.0491     24
10.0541     18
10.0591     24
10.0641     19
10.0691     26
10.0741     22
10.0791     26
10.0841     38
10.0892     34
10.0942     34
10.0992     32
10.1042     38
10.1092     37
10.1142     45
10.1192     51
10.1242     64
10.1292     66
10.1342     52
10.1392     63
10.1442     71
10.1492     85
10.1542     91
10.1592     93
10.1642    114
10.1692    108
10.1742    117
10.1792    111
10.1842    125
10.1892    152
10.1942    151
10.1992    182
10.2042    162
10.2092    166
10.2143    157
10.2193    160
10.2243    187
10.2293    187
10.2343    176
10.2393    203
10.2443    176
10.2493    208
10.2543    220
10.2593    194
10.2643    223
10.2693    180
10.2743    212
10.2793    221
10.2843    224
10.2893    213
10.2943    195
10.2993    210
10.3043    198
10.3093    222
10.3143    199
10.3193    212
10.3243    263
10.3293    255
10.3343    241
10.3394    262
10.3444    266
10.3494    293
10.3544    276
10.3594    322
10.3644    353
10.3694    364
10.3744    421
10.3794    412
10.3844    478
10.3894    527
10.3944    606
10.3994    628
10.4044    667
10.4094    642
10.4144    680
10.4194    784
10.4244    893
10.4294    929
10.4344    972
10.4394   1089
10.4444   1193
10.4494   1336
10.4544   1279
10.4594   1480
10.4645   1567
10.4695   1639
10.4745   1662
10.4795   1800
10.4845   1961
10.4895   1914
10.4945   1926
10.4995   2002
10.5045   2104
10.5095   2141
10.5145   2133
10.5195   2325
10.5245   2226
10.5295   2246
10.5345   2275
10.5395   2242
10.5445   2225
10.5495   2164
10.5545   2134
10.5595   1994
10.5645   1955
10.5695   1884
10.5745   1873
10.5795   1798
10.5845   1632
10.5896   1669
10.5946   1619
10.5996   1434
10.6046   1335
10.6096   1248
10.6146   1190
10.6196   1075
10.6246    976
10.6296    965
10.6346    855
10.6396    742
10.6446    692
10.6496    621
10.6546    540
10.6596    525
10.6646    452
10.6696    428
10.6746    355
10.6796    323
10.6846    287
10.6896    239
10.6946    200
10.6996    172
10.7046    171
10.7096    144
10.7147    117
10.7197    108
10.7247     83
10.7297     77
10.7347     60
10.7397     49
10.7447     42
10.7497     38
10.7547     41
10.7597     30
10.7647     28
10.7697     31
10.7747     20
10.7797     12
10.7847     17
10.7897      6
10.7947     18
10.7997     11
10.8047     13
10.8097     13
10.8147     15
10.8197     14
10.8247     15
10.8297     12
10.8347     12
10.8398      9
10.8448     10
10.8498     12
10.8548      9
10.8598     14
10.8648     11
10.8698     11
10.8748      7
10.8798     15
10.8848      9
10.8898     13
10.8948     15
10.8998     15
10.9048     16
10.9098     14
10.9148     12
10.9198     15
10.9248     16
10.9298     13
10.9348     24
10.9398     23
10.9448     13
10.9498     15
10.9548     14
10.9598     16
10.9649     11
10.9699     17
10.9749     10
10.9799     14
10.9849     17
10.9899     18
10.9949     25
10.9999     10
11.0049     19
11.0099     10
11.0149     16
11.0199     13
11.0249     11
11.0299     14
11.0349     20
11.0399     11
11.0449     18
11.0499     17
11.0549     23
11.0599     13
11.0649      4
11.0699     12
11.0749     19
11.0799     15
11.0849     16
  11.09     11
 11.095      6
   11.1      8
 11.105     10
  11.11      8
 11.115      5
  11.12     12
 11.125      5
  11.13     10
 11.135     10
  11.14      5
 11.145     11
  11.15     11
 11.155      5
  11.16      4
 11.165      7
  11.17     10
 11.175      8
  11.18     11
 11.185      8
  11.19      5
 11.195      6
   11.2      5
 11.205      5
  11.21     10
11.2151      6
11.2201      4
11.2251      7
11.2301     10
11.2351     12
11.2401     11
11.2451     14
11.2501      8
11.2551      8
11.2601     10
11.2651      9
11.2701      8
11.2751      7
11.2801     10
11.2851     11
11.2901      1
11.2951     12
11.3001      8
11.3051      9
11.3101      7
11.3151      8
11.3201      9
11.3251      9
11.3301      9
11.3351      8
11.3402     13
11.3452      9
11.3502     11
11.3552      9
11.3602      9
11.3652      5
11.3702     11
11.3752      9
11.3802      7
11.3852      6
11.3902     12
11.3952     14
11.4002     14
11.4052     12
11.4102      9
11.4152     15
11.4202     20
11.4252     21
11.4302     19
11.4352     14
11.4402     10
11.4452     13
11.4502     14
11.4552     16
11.4602     23
11.4653     12
11.4703     11
11.4753     16
11.4803     16
11.4853     22
11.4903     11
11.4953     24
11.5003     17
11.5053     18
11.5103     22
11.5153     19
11.5203     27
11.5253     26
11.5303     34
11.5353     40
11.5403     45
11.5453     36
11.5503     46
11.5553     51
11.5603     51
11.5653     59
11.5703     54
11.5753     52
11.5803     70
11.5853     87
11.5904     72
11.5954     82
11.6004     99
11.6054    119
11.6104    107
11.6154    109
11.6204    136
11.6254    169
11.6304    173
11.6354    178
11.6404    205
11.6454    190
11.6504    237
11.6554    203
11.6604    245
11.6654    282
11.6704    250
11.6754    253
11.6804    271
11.6854    293
11.6904    316
11.6954    264
11.7004    298
11.7054    300
11.7104    309
11.7155    297
11.7205    304
11.7255    311
11.7305    302
11.7355    296
11.7405    339
11.7455    327
11.7505    331
11.7555    313
11.7605    318
11.7655    297
11.7705    295
11.7755    289
11.7805    284
11.7855    289
11.7905    279
11.7955    279
11.8005    266
11.8055    262
11.8105    261
11.8155    261
11.8205    270
11.8255    240
11.8305    257
11.8355    239
11.8406    243
11.8456    242
11.8506    270
11.8556    253
11.8606    243
11.8656    263
11.8706    221
11.8756    214
11.8806    232
11.8856    212
11.8906    237
11.8956    210
11.9006    261
11.9056    245
11.9106    252
11.9156    214
11.9206    224
11.9256    252
11.9306    193
11.9356    193
11.9406    218
11.9456    184
11.9506    173
11.9556    173
11.9606    160
11.9657    169
11.9707    128
11.9757    154
11.9807    124
11.9857    127
11.9907    111
11.9957    109
12.0007    100
12.0057    107
12.0107     79
12.0157     88
12.0207     91
12.0257     81
12.0307     62
12.0357     69
12.0407     46
12.0457     49
12.0507     34
12.0557     37
12.0607     38
12.0657     31
12.0707     27
12.0757     19
12.0807     25
12.0857     22
12.0908     20
12.0958     18
12.1008     15
12.1058     27
12.1108     23
12.1158     28
12.1208     21
12.1258     30
12.1308     29
12.1358     35
12.1408     26
12.1458     23
12.1508     27
12.1558     30
12.1608     35
12.1658     35
12.1708     37
12.1758     25
12.1808     24
12.1858     35
12.1908     25
12.1958     42
12.2008     40
12.2058     37
12.2108     38
12.2159     35
12.2209     48
12.2259     35
12.2309     44
12.2359     47
12.2409     38
12.2459     38
12.2509     40
12.2559     42
12.2609     46
12.2659     44
12.2709     45
12.2759     40
12.2809     45
12.2859     39
12.2909     52
12.2959     55
12.3009     47
12.3059     60
12.3109     47
12.3159     55
12.3209     41
12.3259     53
12.3309     40
12.3359     41
 12.341     30
 12.346     46
 12.351     41
 12.356     54
 12.361     39
 12.366     66
 12.371     45
 12.376     52
 12.381     61
 12.386     56
 12.391     53
 12.396     59
 12.401     60
 12.406     63
 12.411     61
 12.416     65
 12.421     55
 12.426     68
 12.431     77
 12.436     71
 12.441     82
 12.446     92
 12.451     97
 12.456    107
 12.461    131
12.4661    119
12.4711    171
12.4761    158
12.4811    189
12.4861    170
12.4911    199
12.4961    229
12.5011    273
12.5061    277
12.5111    286
12.5161    330
12.5211    354
12.5261    382
12.5311    361
12.5361    409
12.5411    435
12.5461    442
12.5511    454
12.5561    488
12.5611    526
12.5661    516
12.5711    542
12.5761    563
12.5811    575
12.5861    576
12.5912    599
12.5962    653
12.6012    572
12.6062    604
12.6112    622
12.6162    611
12.6212    621
12.6262    584
12.6312    619
12.6362    588
12.6412    598
12.6462    588
12.6512    566
12.6562    560
12.6612    487
12.6662    494
12.6712    480
12.6762    456
12.6812    467
12.6862    385
12.6912    392
12.6962    384
12.7012    367
12.7062    323
12.7112    299
12.7163    320
12.7213    285
12.7263    279
12.7313    210
12.7363    231
12.7413    228
12.7463    201
12.7513    166
12.7563    155
12.7613    154
12.7663    160
12.7713    131
12.7763    125
12.7813    121
12.7863    113
12.7913    110
12.7963     94
12.8013     72
12.8063    109
12.8113     88
12.8163     65
12.8213     69
12.8263     64
12.8313     56
12.8363     54
12.8414     63
12.8464     50
12.8514     66
12.8564     46
12.8614     41
12.8664     57
12.8714     42
12.8764     48
12.8814     45
12.8864     46
12.8914     42
12.8964     35
12.9014     22
12.9064     22
12.9114     43
12.9164     44
12.9214     39
12.9264     27
12.9314     26
12.9364     32
12.9414     33
12.9464     33
12.9514     29
12.9564     49
12.9614     35
12.9665     40
12.9715     41
12.9765     33
12.9815     22
12.9865     29
12.9915     27
12.9965     35
13.0015     29
13.0065     35
13.0115     51
13.0165     31
13.0215     28
13.0265     26
13.0315     34
13.0365     35
13.0415     26
13.0465     40
13.0515     28
13.0565     36
13.0615     34
13.0665     32
13.0715     28
13.0765     23
13.0815     34
13.0865     34
13.0916     23
13.0966     26
13.1016     28
13.1066     26
13.1116     32
13.1166     28
13.1216     25
13.1266     28
13.1316     15
13.1366     20
13.1416     26
13.1466     22
13.1516     18
13.1566     23
13.1616     18
13.1666     10
13.1716     22
13.1766     19
13.1816     14
13.1866     13
13.1916     18
13.1966     22
13.2016     25
13.2066     24
13.2116     26
13.2167     24
13.2217      6
13.2267     17
13.2317     18
13.2367     19
13.2417     14
13.2467     22
13.2517     20
13.2567     12
13.2617     15
13.2667     22
13.2717     18
13.2767     14
13.2817     22
13.2867     20
13.2917     21
13.2967     25
13.3017     28
13.3067     21
13.3117     31
13.3167     21
13.3217     23
13.3267     23
13.3317     29
13.3367     33
13.3418     23
13.3468     26
13.3518     17
13.3568     22
13.3618     33
13.3668     30
13.3718     22
13.3768     15
13.3818     27
13.3868     23
13.3918     19
13.3968     20
13.4018     13
13.4068     27
13.4118     16
13.4168     25
13.4218     23
13.4268     23
13.4318     24
13.4368     25
13.4418     24
13.4468     21
13.4518     22
13.4568     22
13.4618     26
13.4669     24
13.4719     24
13.4769     21
13.4819     19
13.4869     33
13.4919     30
13.4969     24
13.5019     33
13.5069     18
13.5119     24
13.5169     19
13.5219     20
13.5269     17
13.5319     21
13.5369     36
13.5419     19
13.5469     32
13.5519     24
13.5569     22
13.5619     22
13.5669     28
13.5719     18
13.5769     26
13.5819     18
13.5869     26
 13.592     22
 13.597     23
 13.602     24
 13.607     29
 13.612     28
 13.617     25
 13.622     24
 13.627     22
 13.632     20
 13.637     27
 13.642     32
 13.647     20
 13.652     29
 13.657     20
 13.662     17
 13.667     32
 13.672     25
 13.677     26
 13.682     23
 13.687     34
 13.692     22
 13.697     28
 13.702     29
 13.707     23
 13.712     27
13.7171     31
13.7221     27
13.7271     24
13.7321     28
13.7371     34
13.7421     24
13.7471     29
13.7521     29
13.7571     21
13.7621     28
13.7671     27
13.7721     35
13.7771     25
13.7821     21
13.7871     35
13.7921     34
13.7971     45
13.8021     35
13.8071     24
13.8121     47
13.8171     29
13.8221     49
13.8271     37
13.8321     36
13.8371     31
13.8422     42
13.8472     47
13.8522     48
13.8572     43
13.8622     39
13.8672     59
13.8722     63
13.8772     70
13.8822     71
13.8872     74
13.8922     94
13.8972    121
13.9022    115
13.9072     96
13.9122    120
13.9172    145
13.9222    159
13.9272    179
13.9322    193
13.9372    180
13.9422    243
13.9472    261
13.9522    280
13.9572    327
13.9622    344
13.9673    367
13.9723    349
13.9773    438
13.9823    552
13.9873    478
13.9923    529
13.9973    669
14.0023    708
14.0073    714
14.0123    796
14.0173    821
14.0223    912
14.0273    964
14.0323   1052
14.0373   1090
14.0423   1145
14.0473   1290
14.0523   1284
14.0573   1425
14.0623   1485
14.0673   1558
14.0723   1528
14.0773   1708
14.0823   1707
14.0873   1685
14.0924   1785
14.0974   1899
14.1024   1832
14.1074   1963
14.1124   1885
14.1174   2026
14.1224   2006
14.1274   1932
14.1324   1962
14.1374   2037
14.1424   2059
14.1474   1972
14.1524   1910
14.1574   1955
14.1624   1967
14.1674   1875
14.1724   1889
14.1774   1847
14.1824   1755
14.1874   1681
14.1924   1660
14.1974   1616
14.2024   1506
14.2074   1490
14.2124   1428
14.2175   1354
14.2225   1309
14.2275   1159
14.2325   1138
14.2375   1086
14.2425    969
14.2475    961
14.2525    858
14.2575    781
14.2625    758
14.2675    702
14.2725    669
14.2775    577
14.2825    560
14.2875    510
14.2925    450
14.2975    419
14.3025    357
14.3075    312
14.3125    297
14.3175    270
14.3225    253
14.3275    226
14.3325    221
14.3375    189
14.3426    151
14.3476    150
14.3526    141
14.3576    112
14.3626     96
14.3676     89
14.3726    100
14.3776     77
14.3826     81
14.3876     55
14.3926     64
14.3976     45
14.4026     51
14.4076     63
14.4126     44
14.4176     39
14.4226     53
14.4276     52
14.4326     43
14.4376     30
14.4426     45
14.4476     38
14.4526     45
14.4576     40
14.4626     38
14.4677     31
14.4727     42
14.4777     36
14.4827     33
14.4877     40
14.4927     43
14.4977     34
14.5027     30
14.5077     27
14.5127     31
14.5177     41
14.5227     27
14.5277     27
14.5327     40
14.5377     31
14.5427     35
14.5477     29
14.5527     47
14.5577     37
14.5627     33
14.5677     54
14.5727     42
14.5777     40
14.5827     35
14.5877     52
14.5928     41
14.5978     55
14.6028     54
14.6078     58
14.6128     46
14.6178     39
14.6228     66
14.6278     59
14.6328     62
14.6378     74
14.6428     65
14.6478     71
14.6528     70
14.6578     62
14.6628     81
14.6678     76
14.6728     85
14.6778     98
14.6828     88
14.6878     93
14.6928     93
14.6978     96
14.7028     93
14.7078    117
14.7128    113
14.7179    118
14.7229     98
14.7279    112
14.7329    101
14.7379    115
14.7429    105
14.7479    114
14.7529    125
14.7579    132
14.7629    119
14.7679    122
14.7729    128
14.7779    108
14.7829    128
14.7879    127
14.7929    114
14.7979     96
14.8029    115
14.8079    113
14.8129     94
14.8179    116
14.8229    115
14.8279    121
14.8329     87
14.8379    103
 14.843     97
 14.848     79
 14.853     99
 14.858     83
 14.863     80
 14.868     83
 14.873     78
 14.878     77
 14.883     68
 14.888     64
 14.893     68
 14.898     66
 14.903     68
 14.908     74
 14.913     74
 14.918     59
 14.923     66
 14.928     84
 14.933     66
 14.938     75
 14.943     69
 14.948     67
 14.953     75
 14.958     72
 14.963     71
14.9681     65
14.9731     68
14.9781     77
14.9831     72
14.9881     81
14.9931     78
14.9981     69
15.0031     74
15.0081     57
15.0131     74
15.0181     65
15.0231     93
15.0281     76
15.0331     75
15.0381     78
15.0431     71
15.0481     78
15.0531     68
15.0581     70
15.0631     86
15.0681     73
15.0731     70
15.0781     73
15.0831     96
15.0881     73
15.0932     89
15.0982     80
15.1032     91
15.1082     84
15.1132     81
15.1182     81
15.1232     81
15.1282     84
15.1332     91
15.1382     94
15.1432     93
15.1482     74
15.1532     89
15.1582     86
15.1632     89
15.1682    107
15.1732     88
15.1782     78
15.1832    102
15.1882     96
15.1932    107
15.1982     97
15.2032    117
15.2082    107
15.2132    100
15.2183     87
15.2233     88
15.2283     99
15.2333     98
15.2383    105
15.2433     98
15.2483     93
15.2533     98
15.2583    103
15.2633     96
15.2683    102
15.2733     91
15.2783     99
15.2833    112
15.2883    104
15.2933     99
15.2983     86
15.3033     98
15.3083     90
15.3133     92
15.3183    114
15.3233    107
15.3283    102
15.3333    104
15.3383    105
15.3434    108
15.3484    110
15.3534     93
15.3584    101
15.3634    113
15.3684    109
15.3734    110
15.3784    118
15.3834    111
15.3884    121
15.3934     89
15.3984    109
15.4034    108
15.4084    121
15.4134    111
15.4184    105
15.4234    125
15.4284    112
15.4334    110
15.4384    116
15.4434    117
15.4484    127
15.4534    107
15.4584    101
15.4634    129
15.4685    107
15.4735    124
15.4785    126
15.4835    131
15.4885    146
15.4935    123
15.4985    123
15.5035    113
15.5085    146
15.5135    141
15.5185    146
15.5235    145
15.5285    162
15.5335    152
15.5385    135
15.5435    153
15.5485    144
15.5535    152
15.5585    127
15.5635    134
15.5685    151
15.5735    181
15.5785    179
15.5835    164
15.5885    179
15.5936    181
15.5986    173
15.6036    161
15.6086    178
15.6136    204
15.6186    190
15.6236    197
15.6286    179
15.6336    170
15.6386    193
15.6436    210
15.6486    214
15.6536    237
15.6586    207
15.6636    205
15.6686    242
15.6736    230
15.6786    256
15.6836    276
15.6886    267
15.6936    267
15.6986    262
15.7036    308
15.7086    329
15.7136    337
15.7187    339
15.7237    341
15.7287    338
15.7337    338
15.7387    390
15.7437    372
15.7487    402
15.7537    406
15.7587    402
15.7637    443
15.7687    410
15.7737    455
15.7787    447
15.7837    429
15.7887    428
15.7937    466
15.7987    460
15.8037    487
15.8087    461
15.8137    521
15.8187    495
15.8237    490
15.8287    486
15.8337    544
15.8387    545
15.8438    511
15.8488    488
15.8538    524
15.8588    473
15.8638    501
15.8688    505
15.8738    493
15.8788    467
15.8838    510
15.8888    470
15.8938    454
15.8988    464
15.9038    447
15.9088    450
15.9138    476
15.9188    467
15.9238    434
15.9288    434
15.9338    442
15.9388    398
15.9438    453
15.9488    468
15.9538    444
15.9588    451
15.9638    456
15.9689    471
15.9739    418
15.9789    402
15.9839    438
15.9889    426
15.9939    415
15.9989    438
16.0039    463
16.0089    423
16.0139    479
16.0189    457
16.0239    443
16.0289    470
16.0339    450
16.0389    456
16.0439    475
16.0489    471
16.0539    480
16.0589    504
16.0639    491
16.0689    518
16.0739    534
16.0789    519
16.0839    582
16.0889    548
 16.094    604
 16.099    567
 16.104    585
 16.109    621
 16.114    614
 16.119    638
 16.124    569
 16.129    686
 16.134    658
 16.139    646
 16.144    677
 16.149    666
 16.154    726
 16.159    676
 16.164    654
 16.169    699
 16.174    730
 16.179    768
 16.184    785
 16.189    763
 16.194    801
 16.199    815
 16.204    860
 16.209    862
 16.214    807
16.2191    855
16.2241    904
16.2291    875
16.2341   1000
16.2391    989
16.2441    965
16.2491    998
16.2541   1018
16.2591    965
16.2641   1089
16.2691    997
16.2741   1020
16.2791   1122
16.2841   1104
16.2891   1164
16.2941   1152
16.2991   1158
16.3041   1189
16.3091   1215
16.3141   1233
16.3191   1291
16.3241   1306
16.3291   1283
16.3341   1319
16.3391   1372
16.3442   1377
16.3492   1407
16.3542   1385
16.3592   1440
16.3642   1398
16.3692   1483
16.3742   1422
16.3792   1568
16.3842   1503
16.3892   1636
16.3942   1647
16.3992   1642
16.4042   1672
16.4092   1670
16.4142   1658
16.4192   1631
16.4242   1778
16.4292   1700
16.4342   1739
16.4392   1864
16.4442   1870
16.4492   1809
16.4542   1808
16.4592   1854
16.4642   1943
16.4693   1935
16.4743   1936
16.4793   1955
16.4843   1937
16.4893   2010
16.4943   2072
16.4993   2035
16.5043   2087
16.5093   2088
16.5143   2056
16.5193   2089
16.5243   2094
16.5293   2146
16.5343   2144
16.5393   2162
16.5443   2150
16.5493   2250
16.5543   2125
16.5593   2139
16.5643   2278
16.5693   2313
16.5743   2241
16.5793   2277
16.5843   2288
16.5893   2323
16.5944   2344
16.5994   2186
16.6044   2419
16.6094   2336
16.6144   2327
16.6194   2292
16.6244   2316
16.6294   2373
16.6344   2336
16.6394   2433
16.6444   2251
16.6494   2375
16.6544   2511
16.6594   2425
16.6644   2447
16.6694   2375
16.6744   2352
16.6794   2433
16.6844   2454
16.6894   2416
16.6944   2451
16.6994   2411
16.7044   2406
16.7094   2391
16.7144   2342
16.7195   2373
16.7245   2418
16.7295   2415
16.7345   2450
16.7395   2477
16.7445   2442
16.7495   2424
16.7545   2482
16.7595   2382
16.7645   2454
16.7695   2426
16.7745   2420
16.7795   2331
16.7845   2462
16.7895   2388
16.7945   2473
16.7995   2419
16.8045   2418
16.8095   2395
16.8145   2334
16.8195   2448
16.8245   2469
16.8295   2416
16.8345   2431
16.8395   2346
16.8446   2469
16.8496   2337
16.8546   2423
16.8596   2356
16.8646   2375
16.8696   2422
16.8746   2343
16.8796   2407
16.8846   2306
16.8896   2323
16.8946   2362
16.8996   2359
16.9046   2291
16.9096   2255
16.9146   2406
16.9196   2302
16.9246   2337
16.9296   2288
16.9346   2342
16.9396   2261
16.9446   2372
16.9496   2320
16.9546   2340
16.9596   2287
16.9646   2217
16.9697   2237
16.9747   2310
16.9797   2248
16.9847   2232
16.9897   2250
16.9947   2271
16.9997   2188
17.0047   2257
17.0097   2294
17.0147   2249
17.0197   2224
17.0247   2294
17.0297   2255
17.0347   2230
17.0397   2175
17.0447   2205
17.0497   2210
17.0547   2298
17.0597   2161
17.0647   2276
17.0697   2153
17.0747   2215
17.0797   2126
17.0847   2191
17.0897   2159
17.0948   2220
17.0998   2159
17.1048   2180
17.1098   2184
17.1148   2262
17.1198   2159
17.1248   2152
17.1298   2145
17.1348   2195
17.1398   2143
17.1448   2169
17.1498   2109
17.1548   2228
17.1598   2212
17.1648   2138
17.1698   2187
17.1748   2229
17.1798   2265
17.1848   2135
17.1898   2337
17.1948   2395
17.1998   2468
17.2048   2429
17.2098   2443
17.2148   2375
17.2199   2477
17.2249   2611
17.2299   2575
17.2349   2704
17.2399   2665
17.2449   2795
17.2499   2816
17.2549   2932
17.2599   2997
17.2649   3146
17.2699   3208
17.2749   3152
17.2799   3323
17.2849   3399
17.2899   3570
17.2949   3672
17.2999   3747
17.3049   3777
17.3099   3869
17.3149   3914
17.3199   4069
17.3249   4231
17.3299   4322
17.3349   4407
17.3399   4495
 17.345   4454
  17.35   4674
 17.355   4818
  17.36   4971
 17.365   4908
  17.37   4930
 17.375   5153
  17.38   5201
 17.385   5337
  17.39   5394
 17.395   5283
   17.4   5443
 17.405   5366
  17.41   5444
 17.415   5541
  17.42   5569
 17.425   5614
  17.43   5566
 17.435   5533
  17.44   5494
 17.445   5435
  17.45   5340
 17.455   5301
  17.46   5090
 17.465   5213
17.4701   5118
17.4751   5013
17.4801   5010
17.4851   4742
17.4901   4767
17.4951   4472
17.5001   4504
17.5051   4190
17.5101   4092
17.5151   4007
17.5201   3807
17.5251   3645
17.5301   3482
17.5351   3264
17.5401   3220
17.5451   3038
17.5501   2898
17.5551   2725
17.5601   2561
17.5651   2405
17.5701   2358
17.5751   2181
17.5801   2051
17.5851   1843
17.5901   1713
17.5952   1601
17.6002   1516
17.6052   1403
17.6102   1284
17.6152   1213
17.6202   1087
17.6252   1034
17.6302    939
17.6352    835
17.6402    742
17.6452    728
17.6502    630
17.6552    588
17.6602    494
17.6652    449
17.6702    427
17.6752    396
17.6802    386
17.6852    375
17.6902    330
17.6952    267
17.7002    257
17.7052    233
17.7102    202
17.7152    198
17.7203    186
17.7253    177
17.7303    137
17.7353    130
17.7403    113
17.7453    137
17.7503    126
17.7553    119
17.7603     99
17.7653     87
17.7703     83
17.7753     89
17.7803     76
17.7853     77
17.7903     80
17.7953     73
17.8003     75
17.8053     72
17.8103     70
17.8153     73
17.8203     59
17.8253     67
17.8303     57
17.8353     57
17.8403     49
17.8454     59
17.8504     44
17.8554     60
17.8604     57
17.8654     34
17.8704     58
17.8754     62
17.8804     33
17.8854     52
17.8904     48
17.8954     51
17.9004     43
17.9054     39
17.9104     40
17.9154     51
17.9204     15
17.9254     42
17.9304     30
17.9354     30
17.9404     23
17.9454     32
17.9504     41
17.9554     38
17.9604     37
17.9654     28
17.9705     25
17.9755     31
17.9805     26
17.9855     22
17.9905     26
17.9955     23
18.0005     21
18.0055     23
18.0105     19
18.0155     22
18.0205     33
18.0255     22
18.0305     22
18.0355     18
18.0405     20
18.0455     17
18.0505     18
18.0555     23
18.0605     17
18.0655     25
18.0705     24
18.0755     21
18.0805     25
18.0855     14
18.0905     20
18.0956     20
18.1006     15
18.1056     23
18.1106     17
18.1156     15
18.1206     10
18.1256     16
18.1306     14
18.1356     12
18.1406     17
18.1456     13
18.1506     12
18.1556     19
18.1606     13
18.1656      8
18.1706     14
18.1756     13
18.1806     17
18.1856     16
18.1906     12
18.1956     10
18.2006      9
18.2056     18
18.2106      8
18.2156     14
18.2207     14
18.2257     13
18.2307     17
18.2357     13
18.2407     10
18.2457     12
18.2507     14
18.2557     11
18.2607      8
18.2657      7
18.2707     13
18.2757     16
18.2807     11
18.2857      7
18.2907      6
18.2957      8
18.3007      6
18.3057     10
18.3107      9
18.3157      9
18.3207      6
18.3257      6
18.3307      9
18.3357     13
18.3407     11
18.3458      9
18.3508      6
18.3558      4
18.3608      5
18.3658      6
18.3708      9
18.3758      7
18.3808      9
18.3858      6
18.3908      7
18.3958      5
18.4008      7
18.4058      8
18.4108     10
18.4158      7
18.4208      5
18.4258      7
18.4308      6
18.4358      8
18.4408      6
18.4458      5
18.4508      4
18.4558      6
18.4608      8
18.4658      7
18.4709     10
18.4759      4
18.4809     11
18.4859      3
18.4909      6
18.4959     11
18.5009      4
18.5059      7
18.5109      5
18.5159      8
18.5209      7
18.5259      3
18.5309      7
18.5359      4
18.5409      6
18.5459      7
18.5509      8
18.5559      8
18.5609      4
18.5659      7
18.5709      6
18.5759      7
18.5809      5
18.5859      5
18.5909      6
 18.596      8
 18.601      6
 18.606      3
 18.611      5
 18.616      4
 18.621      4
 18.626      2
 18.631      5
 18.636      5
 18.641      6
 18.646      7
 18.651      4
 18.656      4
 18.661      3
 18.666      7
 18.671      5
 18.676      9
 18.681      7
 18.686      6
 18.691      9
 18.696      5
 18.701      5
 18.706      4
 18.711      4
 18.716      7
18.7211      2
18.7261      5
18.7311      5
18.7361      3
18.7411      9
18.7461      3
18.7511      7
18.7561      4
18.7611      1
18.7661      3
18.7711      6
18.7761      4
18.7811      7
18.7861      8
18.7911      2
18.7961      1
18.8011      4
18.8061      2
18.8111      4
18.8161      3
18.8211      7
18.8261      0
18.8311      1
18.8361      6
18.8411      5
18.8462      4
18.8512      6
18.8562      5
18.8612      6
18.8662      2
18.8712      3
18.8762      5
18.8812      1
18.8862      4
18.8912      2
18.8962      4
18.9012      8
18.9062      3
18.9112      4
18.9162      0
18.9212      4
18.9262      6
18.9312      6
18.9362      4
18.9412      1
18.9462      0
18.9512      5
18.9562      5
18.9612      5
18.9662      5
18.9713      5
18.9763      0
18.9813      1
18.9863      2
18.9913      3
18.9963      7
19.0013      1
19.0063      2
19.0113      2
19.0163      2
19.0213      4
19.0263      3
19.0313      6
19.0363      3
19.0413      2
19.0463      2
19.0513      1
19.0563      0
19.0613      2
19.0663      5
19.0713      3
19.0763      5
19.0813      2
19.0863      3
19.0913      1
19.0964      3
19.1014      4
19.1064      4
19.1114      5
19.1164      1
19.1214      3
19.1264      3
19.1314      8
19.1364      4
19.1414      7
19.1464      6
19.1514      3
19.1564      3
19.1614      2
19.1664      1
19.1714      5
19.1764      5
19.1814      4
19.1864      2
19.1914      3
19.1964      1
19.2014      4
19.2064      1
19.2114      4
19.2164      6
19.2215      5
19.2265      4
19.2315      1
19.2365      1
19.2415      1
19.2465      1
19.2515      5
19.2565      2
19.2615      3
19.2665      6
19.2715      6
19.2765      2
19.2815      2
19.2865      3
19.2915      4
19.2965      4
19.3015      4
19.3065      2
19.3115      1
19.3165      4
19.3215      1
19.3265      4
19.3315      1
19.3365      1
19.3415      2
19.3466      2
19.3516      1
19.3566      1
19.3616      3
19.3666      4
19.3716      3
19.3766      3
19.3816      3
19.3866      3
19.3916      3
19.3966      6
19.4016      3
19.4066      7
19.4116      3
19.4166      3
19.4216      4
19.4266      6
19.4316      2
19.4366      4
19.4416      2
19.4466      4
19.4516      3
19.4566      7
19.4616      2
19.4666      6
19.4717      5
19.4767      3
19.4817      4
19.4867      5
19.4917      1
19.4967      6
19.5017      5
19.5067      5
19.5117      7
19.5167      5
19.5217      6
19.5267      2
19.5317      2
19.5367      5
19.5417      6
19.5467      8
19.5517      1
19.5567      8
19.5617      6
19.5667      5
19.5717     10
19.5767      3
19.5817     10
19.5867      5
19.5917      3
19.5968      4
19.6018      2
19.6068      5
19.6118      7
19.6168      3
19.6218      3
19.6268      5
19.6318      7
19.6368      6
19.6418      6
19.6468      3
19.6518      0
19.6568      4
19.6618      7
19.6668      3
19.6718      3
19.6768      7
19.6818      4
19.6868      5
19.6918      4
19.6968      5
19.7018      2
19.7068      3
19.7118      4
19.7168      3
19.7219      2
19.7269      4
19.7319      1
19.7369      2
19.7419      3
19.7469      6
19.7519      0
19.7569      3
19.7619      1
19.7669      1
19.7719      4
19.7769      5
19.7819      0
19.7869      2
19.7919      0
19.7969      1
19.8019      2
19.8069      0
19.8119      0
19.8169      0
19.8219      1
19.8269      0
19.8319      2
19.8369      1
19.8419      0
 19.847      1
 19.852      2
 19.857      0
 19.862      1
 19.867      0
 19.872      3
 19.877      1
 19.882      0
 19.887      1
 19.892      1
 19.897      2
 19.902      0
 19.907      2
 19.912      3
 19.917      1
 19.922      1
 19.927      1
 19.932      2
 19.937      1
 19.942      2
 19.947      1
 19.952      1
 19.957      1
 19.962      0
 19.967      0
19.9721      1
19.9771      2
19.9821      1
19.9871      0
19.9921      1
19.9971      1
20.0021      0
20.0071      0
