RÖNTEC GmbH Berlin, Germany
Quantax 1.2

Date: 17/01/2019 10:53:08 AM
Real time: 503987
Life time: 500000
Pulse density: 2722


Detector type: XFLASH
Window type: 
Detector thickness: 0.45
Si dead layer:0

Calibration, lin.: 5.004
Calibration, abs.: -484.3
Mn FWHM: 135.26
Fano factor: 0.11
Channels: 4096

Energy Counts
-0.4843      0
-0.4793      0
-0.4743      0
-0.4693      0
-0.4643      0
-0.4593      0
-0.4543      0
-0.4493      0
-0.4443      0
-0.4393      0
-0.4343      0
-0.4293      0
-0.4243      0
-0.4192      0
-0.4142      0
-0.4092      0
-0.4042      0
-0.3992      0
-0.3942      0
-0.3892      0
-0.3842      0
-0.3792      0
-0.3742      0
-0.3692      0
-0.3642      0
-0.3592      0
-0.3542      0
-0.3492      0
-0.3442      0
-0.3392      0
-0.3342      0
-0.3292      0
-0.3242      0
-0.3192      0
-0.3142      0
-0.3092      0
-0.3042      0
-0.2992      0
-0.2941      0
-0.2891      0
-0.2841      0
-0.2791      0
-0.2741      0
-0.2691      0
-0.2641      0
-0.2591      0
-0.2541      0
-0.2491      0
-0.2441      0
-0.2391      0
-0.2341      0
-0.2291      0
-0.2241      0
-0.2191      0
-0.2141      0
-0.2091      0
-0.2041      0
-0.1991      0
-0.1941      0
-0.1891      0
-0.1841      0
-0.1791      0
-0.1741      0
 -0.169      0
 -0.164      0
 -0.159      0
 -0.154      1
 -0.149      1
 -0.144      0
 -0.139      5
 -0.134      8
 -0.129     10
 -0.124     20
 -0.119     55
 -0.114    132
 -0.109    239
 -0.104    474
 -0.099    852
 -0.094   1461
 -0.089   2731
 -0.084   4762
 -0.079   7816
 -0.074  12698
 -0.069  19834
 -0.064  30022
 -0.059  44155
 -0.054  63090
 -0.049  86391
-0.0439 115686
-0.0389 148869
-0.0339 186903
-0.0289 225123
-0.0239 263125
-0.0189 298509
-0.0139 328624
-0.0089 347640
-0.0039 358249
 0.0011 355882
 0.0061 343825
 0.0111 320040
 0.0161 289547
 0.0211 252574
 0.0261 214584
 0.0311 175892
 0.0361 139417
 0.0411 107700
 0.0461  80691
 0.0511  58237
 0.0561  40267
 0.0611  27503
 0.0661  17968
 0.0711  11471
 0.0761   7208
 0.0812   4139
 0.0862   2452
 0.0912   1420
 0.0962    767
 0.1012    389
 0.1062    238
 0.1112    125
 0.1162     61
 0.1212     29
 0.1262     18
 0.1312     12
 0.1362      6
 0.1412      5
 0.1462      3
 0.1512      2
 0.1562      4
 0.1612      5
 0.1662      2
 0.1712      3
 0.1762      2
 0.1812      2
 0.1862      1
 0.1912      1
 0.1962      2
 0.2012      1
 0.2063      2
 0.2113      3
 0.2163      1
 0.2213      2
 0.2263      3
 0.2313      3
 0.2363      1
 0.2413      0
 0.2463      2
 0.2513      2
 0.2563      0
 0.2613      0
 0.2663      0
 0.2713      0
 0.2763      0
 0.2813      0
 0.2863      0
 0.2913      1
 0.2963      0
 0.3013      0
 0.3063      0
 0.3113      0
 0.3163      0
 0.3213      0
 0.3263      0
 0.3314      5
 0.3364     12
 0.3414     34
 0.3464     83
 0.3514     85
 0.3564     94
 0.3614     94
 0.3664     93
 0.3714    100
 0.3764     93
 0.3814     90
 0.3864    110
 0.3914     92
 0.3964     73
 0.4014    114
 0.4064     98
 0.4114     88
 0.4164     88
 0.4214     83
 0.4264     90
 0.4314     98
 0.4364     78
 0.4414     92
 0.4464     77
 0.4514    107
 0.4565     81
 0.4615     90
 0.4665     80
 0.4715     89
 0.4765     94
 0.4815     74
 0.4865     72
 0.4915     98
 0.4965     88
 0.5015     77
 0.5065     69
 0.5115     69
 0.5165     70
 0.5215     79
 0.5265     84
 0.5315     81
 0.5365     75
 0.5415     81
 0.5465     79
 0.5515     74
 0.5565     87
 0.5615     63
 0.5665     71
 0.5715     67
 0.5765     79
 0.5816     75
 0.5866     84
 0.5916     65
 0.5966     67
 0.6016     67
 0.6066     62
 0.6116     70
 0.6166     83
 0.6216     64
 0.6266     61
 0.6316     78
 0.6366     69
 0.6416     83
 0.6466     70
 0.6516     81
 0.6566     79
 0.6616     64
 0.6666     66
 0.6716     74
 0.6766     89
 0.6816     73
 0.6866     67
 0.6916     89
 0.6966     78
 0.7016     60
 0.7067     71
 0.7117     57
 0.7167     75
 0.7217     62
 0.7267     53
 0.7317     64
 0.7367     74
 0.7417     69
 0.7467     67
 0.7517     71
 0.7567     76
 0.7617     69
 0.7667     79
 0.7717     72
 0.7767     70
 0.7817     56
 0.7867     57
 0.7917     60
 0.7967     52
 0.8017     70
 0.8067     69
 0.8117     54
 0.8167     65
 0.8217     40
 0.8267     75
 0.8318     61
 0.8368     72
 0.8418     79
 0.8468     77
 0.8518     71
 0.8568     72
 0.8618     84
 0.8668     67
 0.8718     64
 0.8768     59
 0.8818     68
 0.8868     82
 0.8918     68
 0.8968     68
 0.9018     65
 0.9068     56
 0.9118     55
 0.9168     66
 0.9218     55
 0.9268     58
 0.9318     71
 0.9368     64
 0.9418     64
 0.9468     45
 0.9518     65
 0.9569     59
 0.9619     58
 0.9669     61
 0.9719     54
 0.9769     63
 0.9819     70
 0.9869     54
 0.9919     47
 0.9969     67
 1.0019     72
 1.0069     61
 1.0119     60
 1.0169     64
 1.0219     70
 1.0269     60
 1.0319     52
 1.0369     66
 1.0419     54
 1.0469     62
 1.0519     62
 1.0569     61
 1.0619     78
 1.0669     80
 1.0719     57
 1.0769     46
  1.082     54
  1.087     54
  1.092     59
  1.097     70
  1.102     52
  1.107     49
  1.112     52
  1.117     50
  1.122     40
  1.127     36
  1.132     49
  1.137     49
  1.142     42
  1.147     44
  1.152     48
  1.157     40
  1.162     57
  1.167     40
  1.172     46
  1.177     47
  1.182     59
  1.187     55
  1.192     48
  1.197     52
  1.202     52
 1.2071     46
 1.2121     45
 1.2171     46
 1.2221     52
 1.2271     41
 1.2321     60
 1.2371     49
 1.2421     49
 1.2471     50
 1.2521     43
 1.2571     46
 1.2621     51
 1.2671     45
 1.2721     59
 1.2771     50
 1.2821     55
 1.2871     52
 1.2921     44
 1.2971     41
 1.3021     59
 1.3071     41
 1.3121     35
 1.3171     46
 1.3221     52
 1.3271     65
 1.3322     42
 1.3372     41
 1.3422     30
 1.3472     47
 1.3522     43
 1.3572     46
 1.3622     41
 1.3672     37
 1.3722     38
 1.3772     41
 1.3822     45
 1.3872     49
 1.3922     42
 1.3972     36
 1.4022     29
 1.4072     47
 1.4122     44
 1.4172     44
 1.4222     53
 1.4272     53
 1.4322     46
 1.4372     30
 1.4422     42
 1.4472     41
 1.4522     27
 1.4573     38
 1.4623     39
 1.4673     51
 1.4723     50
 1.4773     44
 1.4823     42
 1.4873     37
 1.4923     51
 1.4973     50
 1.5023     39
 1.5073     59
 1.5123     53
 1.5173     67
 1.5223     40
 1.5273     54
 1.5323     39
 1.5373     51
 1.5423     49
 1.5473     41
 1.5523     61
 1.5573     52
 1.5623     61
 1.5673     53
 1.5723     52
 1.5773     53
 1.5824     66
 1.5874     46
 1.5924     56
 1.5974     53
 1.6024     55
 1.6074     47
 1.6124     39
 1.6174     42
 1.6224     50
 1.6274     56
 1.6324     68
 1.6374     84
 1.6424     94
 1.6474    143
 1.6524    170
 1.6574    195
 1.6624    223
 1.6674    281
 1.6724    349
 1.6774    409
 1.6824    518
 1.6874    628
 1.6924    718
 1.6974    817
 1.7024    963
 1.7075   1065
 1.7125   1188
 1.7175   1282
 1.7225   1466
 1.7275   1458
 1.7325   1465
 1.7375   1544
 1.7425   1522
 1.7475   1610
 1.7525   1498
 1.7575   1443
 1.7625   1407
 1.7675   1268
 1.7725   1151
 1.7775   1022
 1.7825    966
 1.7875    834
 1.7925    711
 1.7975    650
 1.8025    585
 1.8075    459
 1.8125    394
 1.8175    362
 1.8225    282
 1.8275    245
 1.8326    241
 1.8376    172
 1.8426    161
 1.8476    132
 1.8526    121
 1.8576    129
 1.8626    126
 1.8676     98
 1.8726    115
 1.8776     95
 1.8826     99
 1.8876    111
 1.8926    102
 1.8976     88
 1.9026    112
 1.9076    101
 1.9126    110
 1.9176    100
 1.9226    126
 1.9276     99
 1.9326    115
 1.9376    128
 1.9426    123
 1.9476     91
 1.9526    132
 1.9577    143
 1.9627    112
 1.9677    120
 1.9727     94
 1.9777    116
 1.9827    101
 1.9877     79
 1.9927     80
 1.9977     70
 2.0027     73
 2.0077     55
 2.0127     64
 2.0177     49
 2.0227     57
 2.0277     49
 2.0327     49
 2.0377     45
 2.0427     39
 2.0477     47
 2.0527     32
 2.0577     37
 2.0627     42
 2.0677     33
 2.0727     35
 2.0777     27
 2.0828     43
 2.0878     31
 2.0928     29
 2.0978     36
 2.1028     37
 2.1078     33
 2.1128     33
 2.1178     44
 2.1228     29
 2.1278     37
 2.1328     33
 2.1378     37
 2.1428     27
 2.1478     38
 2.1528     26
 2.1578     41
 2.1628     24
 2.1678     37
 2.1728     37
 2.1778     43
 2.1828     29
 2.1878     29
 2.1928     36
 2.1978     32
 2.2028     45
 2.2079     39
 2.2129     30
 2.2179     39
 2.2229     34
 2.2279     30
 2.2329     45
 2.2379     40
 2.2429     44
 2.2479     35
 2.2529     44
 2.2579     44
 2.2629     43
 2.2679     41
 2.2729     40
 2.2779     30
 2.2829     47
 2.2879     53
 2.2929     50
 2.2979     41
 2.3029     47
 2.3079     29
 2.3129     45
 2.3179     35
 2.3229     45
 2.3279     42
  2.333     35
  2.338     38
  2.343     38
  2.348     33
  2.353     30
  2.358     29
  2.363     25
  2.368     34
  2.373     49
  2.378     34
  2.383     39
  2.388     29
  2.393     34
  2.398     37
  2.403     19
  2.408     26
  2.413     25
  2.418     22
  2.423     22
  2.428     25
  2.433     33
  2.438     19
  2.443     29
  2.448     24
  2.453     33
 2.4581     21
 2.4631     20
 2.4681     25
 2.4731     31
 2.4781     34
 2.4831     36
 2.4881     33
 2.4931     29
 2.4981     34
 2.5031     34
 2.5081     29
 2.5131     27
 2.5181     27
 2.5231     38
 2.5281     46
 2.5331     46
 2.5381     44
 2.5431     48
 2.5481     53
 2.5531     44
 2.5581     68
 2.5631     73
 2.5681     80
 2.5731     80
 2.5781     73
 2.5832    115
 2.5882    117
 2.5932    125
 2.5982    134
 2.6032    129
 2.6082    133
 2.6132    125
 2.6182    140
 2.6232    152
 2.6282    140
 2.6332    149
 2.6382    139
 2.6432    125
 2.6482    144
 2.6532    102
 2.6582    108
 2.6632    104
 2.6682     99
 2.6732    101
 2.6782     80
 2.6832     79
 2.6882     72
 2.6932     72
 2.6982     65
 2.7032     57
 2.7083     47
 2.7133     50
 2.7183     40
 2.7233     41
 2.7283     33
 2.7333     44
 2.7383     33
 2.7433     47
 2.7483     35
 2.7533     28
 2.7583     30
 2.7633     36
 2.7683     40
 2.7733     35
 2.7783     33
 2.7833     40
 2.7883     50
 2.7933     37
 2.7983     50
 2.8033     39
 2.8083     36
 2.8133     46
 2.8183     42
 2.8233     44
 2.8283     46
 2.8334     60
 2.8384     65
 2.8434     58
 2.8484     70
 2.8534     69
 2.8584     61
 2.8634     75
 2.8684     90
 2.8734     88
 2.8784     99
 2.8834    113
 2.8884    131
 2.8934    138
 2.8984    133
 2.9034    163
 2.9084    206
 2.9134    222
 2.9184    214
 2.9234    232
 2.9284    255
 2.9334    291
 2.9384    309
 2.9434    304
 2.9484    313
 2.9534    318
 2.9585    353
 2.9635    300
 2.9685    314
 2.9735    305
 2.9785    325
 2.9835    309
 2.9885    267
 2.9935    245
 2.9985    252
 3.0035    245
 3.0085    213
 3.0135    197
 3.0185    157
 3.0235    146
 3.0285    138
 3.0335    124
 3.0385     99
 3.0435     90
 3.0485     62
 3.0535     77
 3.0585     67
 3.0635     48
 3.0685     55
 3.0735     71
 3.0785     56
 3.0836     39
 3.0886     48
 3.0936     41
 3.0986     46
 3.1036     62
 3.1086     39
 3.1136     38
 3.1186     37
 3.1236     42
 3.1286     44
 3.1336     53
 3.1386     40
 3.1436     58
 3.1486     61
 3.1536     59
 3.1586     69
 3.1636     70
 3.1686     69
 3.1736     58
 3.1786     69
 3.1836     96
 3.1886     61
 3.1936     77
 3.1986     87
 3.2036     78
 3.2087     80
 3.2137     99
 3.2187    100
 3.2237    113
 3.2287    103
 3.2337    114
 3.2387    145
 3.2437    169
 3.2487    175
 3.2537    200
 3.2587    214
 3.2637    244
 3.2687    243
 3.2737    274
 3.2787    269
 3.2837    349
 3.2887    338
 3.2937    380
 3.2987    337
 3.3037    375
 3.3087    426
 3.3137    401
 3.3187    382
 3.3237    385
 3.3287    391
 3.3338    394
 3.3388    384
 3.3438    344
 3.3488    307
 3.3538    296
 3.3588    288
 3.3638    264
 3.3688    263
 3.3738    235
 3.3788    192
 3.3838    176
 3.3888    154
 3.3938    126
 3.3988    123
 3.4038     95
 3.4088     88
 3.4138     85
 3.4188     70
 3.4238     62
 3.4288     80
 3.4338     47
 3.4388     60
 3.4438     49
 3.4488     59
 3.4538     46
 3.4589     43
 3.4639     42
 3.4689     51
 3.4739     58
 3.4789     70
 3.4839     59
 3.4889     50
 3.4939     56
 3.4989     78
 3.5039     60
 3.5089     73
 3.5139     86
 3.5189    104
 3.5239    112
 3.5289    101
 3.5339    119
 3.5389    131
 3.5439    126
 3.5489    173
 3.5539    215
 3.5589    265
 3.5639    289
 3.5689    344
 3.5739    430
 3.5789    523
  3.584    621
  3.589    722
  3.594    911
  3.599    973
  3.604   1321
  3.609   1506
  3.614   1718
  3.619   1963
  3.624   2318
  3.629   2729
  3.634   3038
  3.639   3412
  3.644   3758
  3.649   4193
  3.654   4683
  3.659   5054
  3.664   5341
  3.669   5661
  3.674   6053
  3.679   6249
  3.684   6523
  3.689   6533
  3.694   6686
  3.699   6694
  3.704   6647
 3.7091   6414
 3.7141   6216
 3.7191   5927
 3.7241   5650
 3.7291   5272
 3.7341   4919
 3.7391   4531
 3.7441   4047
 3.7491   3674
 3.7541   3190
 3.7591   2876
 3.7641   2590
 3.7691   2063
 3.7741   1848
 3.7791   1571
 3.7841   1351
 3.7891   1025
 3.7941    902
 3.7991    747
 3.8041    622
 3.8091    458
 3.8141    374
 3.8191    306
 3.8241    246
 3.8291    205
 3.8342    180
 3.8392    125
 3.8442    110
 3.8492    106
 3.8542     94
 3.8592     88
 3.8642    101
 3.8692     91
 3.8742     74
 3.8792     89
 3.8842    120
 3.8892     83
 3.8942    106
 3.8992    129
 3.9042    142
 3.9092    153
 3.9142    171
 3.9192    196
 3.9242    208
 3.9292    253
 3.9342    279
 3.9392    344
 3.9442    394
 3.9492    384
 3.9542    455
 3.9593    502
 3.9643    546
 3.9693    610
 3.9743    657
 3.9793    711
 3.9843    798
 3.9893    875
 3.9943    912
 3.9993    862
 4.0043    898
 4.0093    964
 4.0143    959
 4.0193    935
 4.0243    940
 4.0293    918
 4.0343    869
 4.0393    887
 4.0443    850
 4.0493    795
 4.0543    780
 4.0593    705
 4.0643    686
 4.0693    580
 4.0743    527
 4.0793    483
 4.0844    419
 4.0894    399
 4.0944    331
 4.0994    286
 4.1044    260
 4.1094    208
 4.1144    175
 4.1194    137
 4.1244    114
 4.1294     99
 4.1344     95
 4.1394     84
 4.1444     75
 4.1494     54
 4.1544     42
 4.1594     38
 4.1644     38
 4.1694     31
 4.1744     27
 4.1794     26
 4.1844     29
 4.1894     19
 4.1944     20
 4.1994     24
 4.2044     27
 4.2095     18
 4.2145     22
 4.2195     11
 4.2245     19
 4.2295     16
 4.2345     25
 4.2395     20
 4.2445     20
 4.2495     15
 4.2545     20
 4.2595     21
 4.2645     22
 4.2695     19
 4.2745     26
 4.2795     19
 4.2845     19
 4.2895     11
 4.2945     11
 4.2995     13
 4.3045     20
 4.3095     24
 4.3145     22
 4.3195     18
 4.3245     19
 4.3295     15
 4.3346     14
 4.3396     25
 4.3446     26
 4.3496     20
 4.3546     24
 4.3596     18
 4.3646     25
 4.3696     18
 4.3746     24
 4.3796     23
 4.3846     34
 4.3896     29
 4.3946     30
 4.3996     32
 4.4046     23
 4.4096     16
 4.4146     39
 4.4196     26
 4.4246     28
 4.4296     40
 4.4346     50
 4.4396     43
 4.4446     53
 4.4496     45
 4.4546     42
 4.4597     52
 4.4647     51
 4.4697     52
 4.4747     59
 4.4797     53
 4.4847     51
 4.4897     62
 4.4947     48
 4.4997     51
 4.5047     56
 4.5097     45
 4.5147     59
 4.5197     57
 4.5247     42
 4.5297     45
 4.5347     44
 4.5397     40
 4.5447     37
 4.5497     33
 4.5547     37
 4.5597     32
 4.5647     23
 4.5697     28
 4.5747     27
 4.5797     30
 4.5848     47
 4.5898     24
 4.5948     19
 4.5998     31
 4.6048     37
 4.6098     31
 4.6148     30
 4.6198     27
 4.6248     29
 4.6298     28
 4.6348     35
 4.6398     27
 4.6448     30
 4.6498     17
 4.6548     39
 4.6598     33
 4.6648     28
 4.6698     23
 4.6748     23
 4.6798     21
 4.6848     28
 4.6898     30
 4.6948     28
 4.6998     26
 4.7048     25
 4.7099     26
 4.7149     20
 4.7199     20
 4.7249     26
 4.7299     23
 4.7349     22
 4.7399     28
 4.7449     37
 4.7499     36
 4.7549     30
 4.7599     20
 4.7649     35
 4.7699     35
 4.7749     47
 4.7799     34
 4.7849     47
 4.7899     29
 4.7949     48
 4.7999     41
 4.8049     51
 4.8099     51
 4.8149     52
 4.8199     44
 4.8249     43
 4.8299     54
  4.835     66
   4.84     65
  4.845     49
   4.85     58
  4.855     51
   4.86     54
  4.865     54
   4.87     51
  4.875     48
   4.88     42
  4.885     42
   4.89     39
  4.895     40
    4.9     55
  4.905     35
   4.91     33
  4.915     28
   4.92     46
  4.925     36
   4.93     43
  4.935     40
   4.94     34
  4.945     38
   4.95     30
  4.955     29
 4.9601     24
 4.9651     20
 4.9701     21
 4.9751     23
 4.9801     13
 4.9851     25
 4.9901     22
 4.9951     18
 5.0001     15
 5.0051     18
 5.0101     22
 5.0151     20
 5.0201     16
 5.0251     18
 5.0301     15
 5.0351     19
 5.0401     25
 5.0451     17
 5.0501      7
 5.0551     13
 5.0601     21
 5.0651     16
 5.0701     13
 5.0751     10
 5.0801     13
 5.0852     19
 5.0902     22
 5.0952     21
 5.1002     18
 5.1052     20
 5.1102     21
 5.1152     15
 5.1202     24
 5.1252     21
 5.1302     21
 5.1352     27
 5.1402     18
 5.1452     18
 5.1502     20
 5.1552     21
 5.1602     22
 5.1652     20
 5.1702     21
 5.1752     10
 5.1802     18
 5.1852     34
 5.1902     33
 5.1952     26
 5.2002     30
 5.2052     29
 5.2103     11
 5.2153     20
 5.2203     24
 5.2253     18
 5.2303     26
 5.2353     17
 5.2403     25
 5.2453     22
 5.2503     18
 5.2553     27
 5.2603     27
 5.2653     25
 5.2703     30
 5.2753     22
 5.2803     25
 5.2853     19
 5.2903     34
 5.2953     26
 5.3003     21
 5.3053     25
 5.3103     23
 5.3153     21
 5.3203     16
 5.3253     24
 5.3303     24
 5.3354     17
 5.3404     27
 5.3454     22
 5.3504     21
 5.3554     21
 5.3604     17
 5.3654     19
 5.3704     25
 5.3754     25
 5.3804     18
 5.3854     15
 5.3904     21
 5.3954     20
 5.4004     19
 5.4054     20
 5.4104     16
 5.4154     16
 5.4204     17
 5.4254     17
 5.4304     26
 5.4354     21
 5.4404     14
 5.4454     17
 5.4504     20
 5.4554     13
 5.4605     17
 5.4655     17
 5.4705     20
 5.4755     16
 5.4805     18
 5.4855     14
 5.4905     13
 5.4955     21
 5.5005     16
 5.5055     18
 5.5105     16
 5.5155     17
 5.5205     18
 5.5255     19
 5.5305     22
 5.5355     21
 5.5405     21
 5.5455     21
 5.5505     24
 5.5555     13
 5.5605     10
 5.5655     14
 5.5705     16
 5.5755     23
 5.5805     13
 5.5856     16
 5.5906     19
 5.5956     16
 5.6006     19
 5.6056      8
 5.6106     11
 5.6156     13
 5.6206     16
 5.6256     15
 5.6306     19
 5.6356     22
 5.6406     21
 5.6456     13
 5.6506     15
 5.6556     10
 5.6606     17
 5.6656     26
 5.6706     21
 5.6756     15
 5.6806     17
 5.6856     12
 5.6906     14
 5.6956     14
 5.7006     17
 5.7056      9
 5.7107     13
 5.7157     17
 5.7207      8
 5.7257     11
 5.7307     20
 5.7357     16
 5.7407     24
 5.7457     16
 5.7507     15
 5.7557     12
 5.7607     15
 5.7657     16
 5.7707     21
 5.7757     21
 5.7807     21
 5.7857     20
 5.7907     26
 5.7957     29
 5.8007     21
 5.8057     27
 5.8107     20
 5.8157     32
 5.8207     32
 5.8257     30
 5.8307     41
 5.8358     37
 5.8408     36
 5.8458     42
 5.8508     38
 5.8558     35
 5.8608     39
 5.8658     46
 5.8708     63
 5.8758     48
 5.8808     58
 5.8858     55
 5.8908     43
 5.8958     51
 5.9008     50
 5.9058     60
 5.9108     45
 5.9158     37
 5.9208     41
 5.9258     42
 5.9308     47
 5.9358     50
 5.9408     49
 5.9458     41
 5.9508     43
 5.9558     35
 5.9609     39
 5.9659     35
 5.9709     33
 5.9759     35
 5.9809     27
 5.9859     33
 5.9909     18
 5.9959     17
 6.0009     24
 6.0059     24
 6.0109     24
 6.0159     14
 6.0209     19
 6.0259     18
 6.0309     22
 6.0359     14
 6.0409     14
 6.0459     16
 6.0509     23
 6.0559     11
 6.0609     25
 6.0659     15
 6.0709     18
 6.0759      9
 6.0809     16
  6.086     19
  6.091     20
  6.096     13
  6.101     14
  6.106     20
  6.111     22
  6.116     20
  6.121     10
  6.126     27
  6.131     20
  6.136     19
  6.141     20
  6.146     14
  6.151     19
  6.156     18
  6.161     20
  6.166     25
  6.171     24
  6.176     27
  6.181     28
  6.186     35
  6.191     30
  6.196     29
  6.201     43
  6.206     29
 6.2111     38
 6.2161     47
 6.2211     60
 6.2261     54
 6.2311     60
 6.2361     79
 6.2411     80
 6.2461    126
 6.2511    126
 6.2561    162
 6.2611    208
 6.2661    219
 6.2711    271
 6.2761    282
 6.2811    390
 6.2861    396
 6.2911    489
 6.2961    522
 6.3011    558
 6.3061    695
 6.3111    738
 6.3161    905
 6.3211   1007
 6.3261   1112
 6.3311   1272
 6.3362   1422
 6.3412   1446
 6.3462   1574
 6.3512   1737
 6.3562   1876
 6.3612   1908
 6.3662   2098
 6.3712   2165
 6.3762   2191
 6.3812   2341
 6.3862   2407
 6.3912   2348
 6.3962   2461
 6.4012   2387
 6.4062   2402
 6.4112   2403
 6.4162   2326
 6.4212   2326
 6.4262   2224
 6.4312   2185
 6.4362   2013
 6.4412   1967
 6.4462   1791
 6.4512   1737
 6.4562   1589
 6.4613   1489
 6.4663   1334
 6.4713   1182
 6.4763   1087
 6.4813   1024
 6.4863    879
 6.4913    786
 6.4963    692
 6.5013    604
 6.5063    519
 6.5113    473
 6.5163    378
 6.5213    326
 6.5263    303
 6.5313    239
 6.5363    215
 6.5413    151
 6.5463    140
 6.5513    139
 6.5563     85
 6.5613     82
 6.5663     58
 6.5713     51
 6.5763     46
 6.5813     44
 6.5864     29
 6.5914     33
 6.5964     30
 6.6014     21
 6.6064     22
 6.6114     14
 6.6164     14
 6.6214     12
 6.6264     19
 6.6314     10
 6.6364     12
 6.6414      9
 6.6464     15
 6.6514     12
 6.6564      9
 6.6614      9
 6.6664     10
 6.6714     10
 6.6764     13
 6.6814     13
 6.6864     12
 6.6914     12
 6.6964     12
 6.7014     11
 6.7064     11
 6.7115      5
 6.7165      9
 6.7215      9
 6.7265     10
 6.7315      8
 6.7365     13
 6.7415      6
 6.7465     14
 6.7515     11
 6.7565     11
 6.7615      8
 6.7665     10
 6.7715     10
 6.7765     11
 6.7815     18
 6.7865     12
 6.7915     15
 6.7965     11
 6.8015     14
 6.8065      5
 6.8115     13
 6.8165      5
 6.8215     13
 6.8265     16
 6.8315     13
 6.8366     19
 6.8416     12
 6.8466     18
 6.8516     17
 6.8566     10
 6.8616     21
 6.8666     20
 6.8716     29
 6.8766     19
 6.8816     28
 6.8866     30
 6.8916     35
 6.8966     31
 6.9016     32
 6.9066     42
 6.9116     40
 6.9166     51
 6.9216     48
 6.9266     58
 6.9316     71
 6.9366     68
 6.9416     67
 6.9466     88
 6.9516     84
 6.9566    122
 6.9617    119
 6.9667    135
 6.9717    149
 6.9767    148
 6.9817    185
 6.9867    174
 6.9917    205
 6.9967    204
 7.0017    227
 7.0067    246
 7.0117    248
 7.0167    257
 7.0217    272
 7.0267    319
 7.0317    312
 7.0367    323
 7.0417    324
 7.0467    307
 7.0517    316
 7.0567    331
 7.0617    328
 7.0667    290
 7.0717    358
 7.0767    323
 7.0817    298
 7.0868    281
 7.0918    290
 7.0968    234
 7.1018    260
 7.1068    222
 7.1118    233
 7.1168    208
 7.1218    203
 7.1268    172
 7.1318    186
 7.1368    144
 7.1418    130
 7.1468    133
 7.1518    116
 7.1568     83
 7.1618     90
 7.1668     71
 7.1718     56
 7.1768     49
 7.1818     50
 7.1868     57
 7.1918     47
 7.1968     45
 7.2018     32
 7.2068     27
 7.2119     24
 7.2169     21
 7.2219     15
 7.2269     15
 7.2319     11
 7.2369      8
 7.2419      9
 7.2469      7
 7.2519     12
 7.2569      7
 7.2619      2
 7.2669      9
 7.2719      4
 7.2769      3
 7.2819      9
 7.2869      5
 7.2919      5
 7.2969      9
 7.3019      6
 7.3069      2
 7.3119      9
 7.3169      3
 7.3219     11
 7.3269      7
 7.3319      6
  7.337      0
  7.342      8
  7.347      6
  7.352      6
  7.357      5
  7.362      5
  7.367      7
  7.372      4
  7.377      4
  7.382      6
  7.387      4
  7.392      3
  7.397      9
  7.402      8
  7.407      6
  7.412      2
  7.417      9
  7.422      5
  7.427      4
  7.432      4
  7.437      8
  7.442      5
  7.447      5
  7.452     10
  7.457      5
 7.4621      6
 7.4671      8
 7.4721     13
 7.4771      7
 7.4821      7
 7.4871     10
 7.4921      9
 7.4971      9
 7.5021      4
 7.5071      6
 7.5121      5
 7.5171     12
 7.5221      7
 7.5271      9
 7.5321      7
 7.5371      7
 7.5421      5
 7.5471      7
 7.5521      7
 7.5571      9
 7.5621      6
 7.5671      5
 7.5721      3
 7.5771      4
 7.5821      3
 7.5872      3
 7.5922      6
 7.5972      6
 7.6022      4
 7.6072      6
 7.6122      4
 7.6172     10
 7.6222      5
 7.6272      7
 7.6322      7
 7.6372      3
 7.6422      7
 7.6472      4
 7.6522      2
 7.6572      5
 7.6622      6
 7.6672      6
 7.6722      8
 7.6772      2
 7.6822      0
 7.6872     10
 7.6922      8
 7.6972      4
 7.7022      6
 7.7072      2
 7.7123      4
 7.7173      4
 7.7223      2
 7.7273      7
 7.7323      5
 7.7373      5
 7.7423      4
 7.7473     10
 7.7523      3
 7.7573      3
 7.7623      2
 7.7673      4
 7.7723      3
 7.7773      7
 7.7823      9
 7.7873      6
 7.7923      3
 7.7973      5
 7.8023      3
 7.8073      2
 7.8123      7
 7.8173      7
 7.8223      7
 7.8273      6
 7.8323      4
 7.8374      3
 7.8424      3
 7.8474      7
 7.8524      4
 7.8574     11
 7.8624      5
 7.8674      7
 7.8724      5
 7.8774     12
 7.8824     14
 7.8874      8
 7.8924      6
 7.8974      6
 7.9024      7
 7.9074      5
 7.9124      5
 7.9174      6
 7.9224     11
 7.9274      7
 7.9324     12
 7.9374      9
 7.9424     11
 7.9474     13
 7.9524     18
 7.9574      9
 7.9625     17
 7.9675     15
 7.9725      6
 7.9775     15
 7.9825     19
 7.9875     12
 7.9925     12
 7.9975     15
 8.0025      9
 8.0075     23
 8.0125     16
 8.0175     17
 8.0225     14
 8.0275     22
 8.0325     11
 8.0375     18
 8.0425     16
 8.0475     17
 8.0525     17
 8.0575     14
 8.0625     14
 8.0675     15
 8.0725     16
 8.0775     14
 8.0825     18
 8.0876     10
 8.0926     11
 8.0976     10
 8.1026     16
 8.1076      8
 8.1126     12
 8.1176      8
 8.1226      3
 8.1276      6
 8.1326     10
 8.1376      8
 8.1426      9
 8.1476      7
 8.1526      9
 8.1576     11
 8.1626     11
 8.1676      2
 8.1726      9
 8.1776      7
 8.1826      5
 8.1876      5
 8.1926      5
 8.1976      4
 8.2026      4
 8.2076      9
 8.2127     13
 8.2177      8
 8.2227      4
 8.2277      3
 8.2327      8
 8.2377      5
 8.2427      6
 8.2477      8
 8.2527      3
 8.2577      6
 8.2627      4
 8.2677      5
 8.2727      8
 8.2777      8
 8.2827      6
 8.2877      3
 8.2927      4
 8.2977      5
 8.3027      4
 8.3077      4
 8.3127      7
 8.3177      4
 8.3227      9
 8.3277     12
 8.3327      2
 8.3378      6
 8.3428     10
 8.3478      7
 8.3528      8
 8.3578      8
 8.3628      7
 8.3678      2
 8.3728      7
 8.3778      4
 8.3828      6
 8.3878      6
 8.3928      5
 8.3978      8
 8.4028      8
 8.4078      9
 8.4128      8
 8.4178      8
 8.4228     10
 8.4278     12
 8.4328      8
 8.4378      8
 8.4428      8
 8.4478     10
 8.4528     16
 8.4578     18
 8.4629     20
 8.4679     18
 8.4729     24
 8.4779     14
 8.4829     26
 8.4879     21
 8.4929     16
 8.4979     33
 8.5029     32
 8.5079     36
 8.5129     31
 8.5179     47
 8.5229     53
 8.5279     61
 8.5329     62
 8.5379     59
 8.5429     73
 8.5479     89
 8.5529     82
 8.5579    105
 8.5629    125
 8.5679     80
 8.5729    120
 8.5779    124
 8.5829    137
  8.588    138
  8.593    145
  8.598    159
  8.603    151
  8.608    162
  8.613    205
  8.618    175
  8.623    169
  8.628    156
  8.633    161
  8.638    165
  8.643    159
  8.648    193
  8.653    150
  8.658    141
  8.663    164
  8.668    150
  8.673    133
  8.678    138
  8.683    118
  8.688    103
  8.693    117
  8.698    122
  8.703    108
  8.708     98
 8.7131     77
 8.7181     74
 8.7231     82
 8.7281     57
 8.7331     54
 8.7381     58
 8.7431     48
 8.7481     39
 8.7531     44
 8.7581     35
 8.7631     35
 8.7681     31
 8.7731     32
 8.7781     22
 8.7831     24
 8.7881     22
 8.7931      9
 8.7981     15
 8.8031     14
 8.8081     15
 8.8131     14
 8.8181     12
 8.8231     13
 8.8281      8
 8.8331      7
 8.8382      8
 8.8432      7
 8.8482     14
 8.8532      9
 8.8582      7
 8.8632     10
 8.8682      6
 8.8732      7
 8.8782      7
 8.8832      8
 8.8882      6
 8.8932     11
 8.8982     13
 8.9032     14
 8.9082      4
 8.9132      6
 8.9182      9
 8.9232     10
 8.9282      8
 8.9332      9
 8.9382      5
 8.9432     12
 8.9482      8
 8.9532      4
 8.9582      9
 8.9633      7
 8.9683      7
 8.9733      3
 8.9783      9
 8.9833      6
 8.9883      3
 8.9933      6
 8.9983      6
 9.0033      6
 9.0083     12
 9.0133      7
 9.0183      5
 9.0233      5
 9.0283      8
 9.0333      5
 9.0383      5
 9.0433      3
 9.0483      8
 9.0533     12
 9.0583     12
 9.0633      3
 9.0683      6
 9.0733      9
 9.0783     13
 9.0833      8
 9.0884      5
 9.0934      7
 9.0984     10
 9.1034     12
 9.1084      8
 9.1134     12
 9.1184     10
 9.1234      9
 9.1284     16
 9.1334     12
 9.1384     10
 9.1434     21
 9.1484     17
 9.1534     20
 9.1584     22
 9.1634     17
 9.1684     19
 9.1734     22
 9.1784     27
 9.1834     14
 9.1884     25
 9.1934     25
 9.1984     21
 9.2034     30
 9.2084     29
 9.2135     33
 9.2185     32
 9.2235     32
 9.2285     28
 9.2335     42
 9.2385     31
 9.2435     32
 9.2485     38
 9.2535     31
 9.2585     43
 9.2635     30
 9.2685     37
 9.2735     32
 9.2785     26
 9.2835     37
 9.2885     26
 9.2935     34
 9.2985     31
 9.3035     20
 9.3085     26
 9.3135     26
 9.3185     19
 9.3235     26
 9.3285     19
 9.3335     18
 9.3386     18
 9.3436     20
 9.3486     21
 9.3536     17
 9.3586     15
 9.3636     13
 9.3686     13
 9.3736     15
 9.3786     10
 9.3836     12
 9.3886      6
 9.3936     12
 9.3986     11
 9.4036     12
 9.4086      9
 9.4136     10
 9.4186      6
 9.4236      6
 9.4286      9
 9.4336      9
 9.4386     15
 9.4436     17
 9.4486     10
 9.4536      9
 9.4586     10
 9.4637     18
 9.4687     20
 9.4737     12
 9.4787     15
 9.4837     19
 9.4887     17
 9.4937     21
 9.4987     23
 9.5037     21
 9.5087     23
 9.5137     19
 9.5187     26
 9.5237     24
 9.5287     24
 9.5337     23
 9.5387     29
 9.5437     35
 9.5487     26
 9.5537     27
 9.5587     35
 9.5637     34
 9.5687     30
 9.5737     34
 9.5787     30
 9.5837     34
 9.5888     30
 9.5938     33
 9.5988     20
 9.6038     30
 9.6088     22
 9.6138     27
 9.6188     19
 9.6238     23
 9.6288     19
 9.6338     17
 9.6388     18
 9.6438     19
 9.6488     21
 9.6538     13
 9.6588     19
 9.6638     24
 9.6688     19
 9.6738     20
 9.6788     20
 9.6838     18
 9.6888     22
 9.6938     21
 9.6988     16
 9.7038     23
 9.7088     21
 9.7139     14
 9.7189     14
 9.7239     16
 9.7289     23
 9.7339     24
 9.7389     17
 9.7439     23
 9.7489     29
 9.7539     21
 9.7589     23
 9.7639     42
 9.7689     37
 9.7739     42
 9.7789     34
 9.7839     33
 9.7889     43
 9.7939     33
 9.7989     47
 9.8039     54
 9.8089     59
 9.8139     61
 9.8189     59
 9.8239     45
 9.8289     59
 9.8339     56
  9.839     73
  9.844     80
  9.849     73
  9.854     66
  9.859     80
  9.864     87
  9.869     83
  9.874     94
  9.879     70
  9.884     93
  9.889     74
  9.894     89
  9.899     67
  9.904     96
  9.909     79
  9.914     87
  9.919     71
  9.924     78
  9.929     55
  9.934     52
  9.939     66
  9.944     51
  9.949     50
  9.954     52
  9.959     40
 9.9641     46
 9.9691     44
 9.9741     42
 9.9791     39
 9.9841     40
 9.9891     40
 9.9941     34
 9.9991     25
10.0041     26
10.0091     26
10.0141     33
10.0191     15
10.0241     20
10.0291     23
10.0341     24
10.0391     15
10.0441     20
10.0491     17
10.0541     13
10.0591     21
10.0641     15
10.0691     30
10.0741     17
10.0791     25
10.0841     11
10.0892     18
10.0942     24
10.0992     15
10.1042     20
10.1092     17
10.1142     16
10.1192     14
10.1242     15
10.1292     20
10.1342     14
10.1392     16
10.1442     15
10.1492     19
10.1542     13
10.1592     15
10.1642     18
10.1692     14
10.1742     20
10.1792     16
10.1842     17
10.1892     16
10.1942     21
10.1992     19
10.2042     22
10.2092     15
10.2143     34
10.2193     22
10.2243     27
10.2293     25
10.2343     24
10.2393     20
10.2443     27
10.2493     23
10.2543     31
10.2593     37
10.2643     25
10.2693     27
10.2743     32
10.2793     30
10.2843     41
10.2893     38
10.2943     36
10.2993     50
10.3043     49
10.3093     48
10.3143     70
10.3193     87
10.3243     61
10.3293    100
10.3343    107
10.3394    108
10.3444    129
10.3494    123
10.3544    164
10.3594    178
10.3644    196
10.3694    233
10.3744    277
10.3794    326
10.3844    377
10.3894    397
10.3944    475
10.3994    538
10.4044    608
10.4094    642
10.4144    680
10.4194    784
10.4244    893
10.4294    929
10.4344    972
10.4394   1089
10.4444   1193
10.4494   1336
10.4544   1279
10.4594   1480
10.4645   1567
10.4695   1639
10.4745   1662
10.4795   1800
10.4845   1961
10.4895   1914
10.4945   1926
10.4995   2002
10.5045   2104
10.5095   2141
10.5145   2133
10.5195   2325
10.5245   2226
10.5295   2246
10.5345   2275
10.5395   2242
10.5445   2225
10.5495   2164
10.5545   2134
10.5595   1994
10.5645   1955
10.5695   1884
10.5745   1873
10.5795   1798
10.5845   1632
10.5896   1669
10.5946   1619
10.5996   1434
10.6046   1335
10.6096   1248
10.6146   1190
10.6196   1075
10.6246    976
10.6296    965
10.6346    855
10.6396    742
10.6446    692
10.6496    621
10.6546    540
10.6596    525
10.6646    452
10.6696    428
10.6746    355
10.6796    323
10.6846    287
10.6896    239
10.6946    200
10.6996    172
10.7046    171
10.7096    144
10.7147    117
10.7197    108
10.7247     83
10.7297     77
10.7347     60
10.7397     49
10.7447     42
10.7497     38
10.7547     41
10.7597     30
10.7647     28
10.7697     31
10.7747     20
10.7797     12
10.7847     17
10.7897      6
10.7947     18
10.7997     11
10.8047     13
10.8097     13
10.8147     15
10.8197     14
10.8247     15
10.8297     12
10.8347     12
10.8398      9
10.8448     10
10.8498     12
10.8548      9
10.8598     14
10.8648     11
10.8698     11
10.8748      7
10.8798     15
10.8848      9
10.8898     13
10.8948     15
10.8998     15
10.9048     16
10.9098     14
10.9148     12
10.9198     15
10.9248     16
10.9298     13
10.9348     24
10.9398     23
10.9448     13
10.9498     15
10.9548     14
10.9598     16
10.9649     11
10.9699     17
10.9749     10
10.9799     14
10.9849     17
10.9899     18
10.9949     25
10.9999     10
11.0049     19
11.0099     10
11.0149     16
11.0199     13
11.0249     11
11.0299     14
11.0349     20
11.0399     11
11.0449     18
11.0499     17
11.0549     23
11.0599     13
11.0649      4
11.0699     12
11.0749     19
11.0799     15
11.0849     16
  11.09     11
 11.095      6
   11.1      8
 11.105     10
  11.11      8
 11.115      5
  11.12     12
 11.125      5
  11.13     10
 11.135     10
  11.14      5
 11.145     11
  11.15     11
 11.155      5
  11.16      4
 11.165      7
  11.17     10
 11.175      8
  11.18     11
 11.185      8
  11.19      5
 11.195      6
   11.2      5
 11.205      5
  11.21     10
11.2151      6
11.2201      4
11.2251      7
11.2301     10
11.2351     12
11.2401     11
11.2451     14
11.2501      8
11.2551      8
11.2601     10
11.2651      9
11.2701      8
11.2751      7
11.2801     10
11.2851     11
11.2901      1
11.2951     12
11.3001      8
11.3051      9
11.3101      7
11.3151      8
11.3201      9
11.3251      9
11.3301      9
11.3351      8
11.3402     13
11.3452      9
11.3502     11
11.3552      9
11.3602      9
11.3652      5
11.3702     11
11.3752      9
11.3802      7
11.3852      6
11.3902     12
11.3952     14
11.4002     14
11.4052     12
11.4102      9
11.4152     15
11.4202     20
11.4252     21
11.4302     19
11.4352     14
11.4402     10
11.4452     13
11.4502     14
11.4552     16
11.4602     23
11.4653     12
11.4703     11
11.4753     16
11.4803     16
11.4853     22
11.4903     11
11.4953     24
11.5003     17
11.5053     18
11.5103     22
11.5153     19
11.5203     27
11.5253     26
11.5303     34
11.5353     40
11.5403     45
11.5453     36
11.5503     46
11.5553     51
11.5603     51
11.5653     59
11.5703     54
11.5753     52
11.5803     70
11.5853     87
11.5904     72
11.5954     82
11.6004     99
11.6054    119
11.6104    107
11.6154    109
11.6204    136
11.6254    169
11.6304    173
11.6354    178
11.6404    205
11.6454    190
11.6504    237
11.6554    203
11.6604    245
11.6654    282
11.6704    250
11.6754    253
11.6804    271
11.6854    293
11.6904    316
11.6954    264
11.7004    298
11.7054    300
11.7104    309
11.7155    297
11.7205    304
11.7255    311
11.7305    302
11.7355    296
11.7405    339
11.7455    327
11.7505    331
11.7555    313
11.7605    318
11.7655    297
11.7705    295
11.7755    289
11.7805    284
11.7855    289
11.7905    279
11.7955    279
11.8005    266
11.8055    262
11.8105    261
11.8155    261
11.8205    270
11.8255    240
11.8305    257
11.8355    239
11.8406    243
11.8456    242
11.8506    270
11.8556    253
11.8606    243
11.8656    263
11.8706    221
11.8756    214
11.8806    232
11.8856    212
11.8906    237
11.8956    210
11.9006    261
11.9056    245
11.9106    252
11.9156    214
11.9206    224
11.9256    252
11.9306    193
11.9356    193
11.9406    218
11.9456    184
11.9506    173
11.9556    173
11.9606    160
11.9657    169
11.9707    128
11.9757    154
11.9807    124
11.9857    127
11.9907    111
11.9957    109
12.0007    100
12.0057    107
12.0107     79
12.0157     88
12.0207     91
12.0257     81
12.0307     62
12.0357     69
12.0407     46
12.0457     49
12.0507     34
12.0557     37
12.0607     38
12.0657     31
12.0707     27
12.0757     19
12.0807     25
12.0857     22
12.0908     20
12.0958     18
12.1008     15
12.1058     14
12.1108     11
12.1158     17
12.1208     12
12.1258      7
12.1308     12
12.1358      5
12.1408     10
12.1458     10
12.1508      4
12.1558      8
12.1608      6
12.1658      3
12.1708      5
12.1758     19
12.1808     13
12.1858      3
12.1908      6
12.1958      4
12.2008      3
12.2058      5
12.2108      4
12.2159      8
12.2209      9
12.2259      4
12.2309      4
12.2359      7
12.2409      6
12.2459      5
12.2509      7
12.2559      8
12.2609      4
12.2659      3
12.2709     11
12.2759     10
12.2809     10
12.2859     10
12.2909     11
12.2959     10
12.3009      6
12.3059      9
12.3109      5
12.3159      8
12.3209      2
12.3259      8
12.3309     10
12.3359      7
 12.341      3
 12.346     14
 12.351      8
 12.356      6
 12.361     15
 12.366     10
 12.371     11
 12.376      3
 12.381     16
 12.386      8
 12.391      6
 12.396      8
 12.401      9
 12.406     11
 12.411     12
 12.416     14
 12.421      5
 12.426      7
 12.431     11
 12.436      5
 12.441     11
 12.446     10
 12.451     11
 12.456     13
 12.461      6
12.4661     10
12.4711     13
12.4761     17
12.4811     14
12.4861      7
12.4911     11
12.4961      8
12.5011     12
12.5061     14
12.5111     11
12.5161     16
12.5211      7
12.5261     14
12.5311     18
12.5361     16
12.5411      5
12.5461     10
12.5511     12
12.5561     19
12.5611     14
12.5661     10
12.5711     12
12.5761     10
12.5811     11
12.5861     11
12.5912     13
12.5962     10
12.6012     10
12.6062      9
12.6112     20
12.6162     13
12.6212     11
12.6262     20
12.6312     13
12.6362     12
12.6412     14
12.6462     12
12.6512     18
12.6562     12
12.6612     15
12.6662     11
12.6712     10
12.6762      9
12.6812      9
12.6862     17
12.6912     15
12.6962     13
12.7012     14
12.7062     11
12.7112     10
12.7163      9
12.7213     12
12.7263     16
12.7313     15
12.7363      6
12.7413      7
12.7463      5
12.7513     10
12.7563     14
12.7613      9
12.7663      7
12.7713     16
12.7763     12
12.7813     11
12.7863      8
12.7913     13
12.7963     11
12.8013      5
12.8063     11
12.8113      9
12.8163     13
12.8213     10
12.8263      7
12.8313     10
12.8363      9
12.8414      6
12.8464      9
12.8514      7
12.8564      6
12.8614     14
12.8664      8
12.8714      8
12.8764      9
12.8814      9
12.8864      7
12.8914      6
12.8964     11
12.9014      8
12.9064      7
12.9114     15
12.9164     12
12.9214      8
12.9264      9
12.9314      6
12.9364      9
12.9414     12
12.9464     12
12.9514     13
12.9564     12
12.9614     11
12.9665     13
12.9715     12
12.9765      6
12.9815     10
12.9865     21
12.9915     12
12.9965     17
13.0015      7
13.0065      9
13.0115      9
13.0165     10
13.0215     14
13.0265     10
13.0315     14
13.0365     10
13.0415     11
13.0465     12
13.0515     12
13.0565     14
13.0615     17
13.0665     10
13.0715     10
13.0765     14
13.0815     15
13.0865     16
13.0916     17
13.0966     14
13.1016     15
13.1066     14
13.1116     21
13.1166     30
13.1216     15
13.1266     17
13.1316     18
13.1366     20
13.1416     21
13.1466     29
13.1516     26
13.1566     17
13.1616     31
13.1666     24
13.1716     28
13.1766     44
13.1816     30
13.1866     43
13.1916     34
13.1966     48
13.2016     42
13.2066     41
13.2116     48
13.2167     54
13.2217     62
13.2267     63
13.2317     66
13.2367     70
13.2417     66
13.2467     81
13.2517     80
13.2567     70
13.2617     85
13.2667     88
13.2717     91
13.2767    101
13.2817    116
13.2867    108
13.2917    108
13.2967    116
13.3017    113
13.3067    123
13.3117    109
13.3167    130
13.3217    118
13.3267    117
13.3317    129
13.3367    139
13.3418    140
13.3468    119
13.3518    135
13.3568    131
13.3618    148
13.3668    133
13.3718    158
13.3768    140
13.3818    140
13.3868    140
13.3918    132
13.3968    129
13.4018    125
13.4068    132
13.4118    116
13.4168    114
13.4218    109
13.4268    114
13.4318     95
13.4368    101
13.4418    106
13.4468     97
13.4518    105
13.4568     78
13.4618     83
13.4669     91
13.4719     61
13.4769     82
13.4819     72
13.4869     75
13.4919     62
13.4969     67
13.5019     60
13.5069     38
13.5119     57
13.5169     53
13.5219     63
13.5269     47
13.5319     40
13.5369     44
13.5419     34
13.5469     42
13.5519     35
13.5569     31
13.5619     41
13.5669     26
13.5719     29
13.5769     37
13.5819     30
13.5869     24
 13.592     31
 13.597     24
 13.602     29
 13.607     18
 13.612     24
 13.617     36
 13.622     28
 13.627     24
 13.632     18
 13.637     26
 13.642     19
 13.647     18
 13.652     23
 13.657     29
 13.662     23
 13.667     24
 13.672     27
 13.677     22
 13.682     24
 13.687     27
 13.692     34
 13.697     25
 13.702     26
 13.707     28
 13.712     22
13.7171     23
13.7221     27
13.7271     32
13.7321     25
13.7371     33
13.7421     26
13.7471     27
13.7521     18
13.7571     40
13.7621     31
13.7671     37
13.7721     26
13.7771     24
13.7821     45
13.7871     32
13.7921     37
13.7971     34
13.8021     29
13.8071     31
13.8121     44
13.8171     38
13.8221     26
13.8271     41
13.8321     44
13.8371     40
13.8422     36
13.8472     54
13.8522     38
13.8572     45
13.8622     56
13.8672     60
13.8722     63
13.8772     66
13.8822     76
13.8872     87
13.8922     86
13.8972    117
13.9022    108
13.9072    132
13.9122    145
13.9172    131
13.9222    170
13.9272    192
13.9322    249
13.9372    220
13.9422    265
13.9472    284
13.9522    335
13.9572    320
13.9622    374
13.9673    437
13.9723    464
13.9773    509
13.9823    590
13.9873    584
13.9923    711
13.9973    775
14.0023    808
14.0073    817
14.0123    934
14.0173    992
14.0223   1019
14.0273   1151
14.0323   1204
14.0373   1249
14.0423   1309
14.0473   1429
14.0523   1473
14.0573   1556
14.0623   1622
14.0673   1759
14.0723   1865
14.0773   1810
14.0823   1978
14.0873   2006
14.0924   2127
14.0974   2071
14.1024   2172
14.1074   2177
14.1124   2255
14.1174   2356
14.1224   2317
14.1274   2254
14.1324   2369
14.1374   2336
14.1424   2389
14.1474   2299
14.1524   2345
14.1574   2280
14.1624   2222
14.1674   2278
14.1724   2102
14.1774   2148
14.1824   2169
14.1874   1982
14.1924   1956
14.1974   1847
14.2024   1786
14.2074   1729
14.2124   1687
14.2175   1478
14.2225   1482
14.2275   1374
14.2325   1306
14.2375   1271
14.2425   1161
14.2475   1129
14.2525    995
14.2575    947
14.2625    809
14.2675    864
14.2725    739
14.2775    713
14.2825    643
14.2875    576
14.2925    544
14.2975    470
14.3025    437
14.3075    380
14.3125    344
14.3175    320
14.3225    280
14.3275    259
14.3325    215
14.3375    188
14.3426    162
14.3476    153
14.3526    147
14.3576    127
14.3626    114
14.3676    104
14.3726     93
14.3776     93
14.3826     64
14.3876     82
14.3926     60
14.3976     47
14.4026     57
14.4076     53
14.4126     23
14.4176     35
14.4226     53
14.4276     40
14.4326     36
14.4376     29
14.4426     29
14.4476     34
14.4526     33
14.4576     27
14.4626     39
14.4677     35
14.4727     34
14.4777     30
14.4827     34
14.4877     31
14.4927     25
14.4977     24
14.5027     33
14.5077     27
14.5127     24
14.5177     28
14.5227     40
14.5277     29
14.5327     27
14.5377     39
14.5427     25
14.5477     31
14.5527     30
14.5577     32
14.5627     41
14.5677     32
14.5727     38
14.5777     31
14.5827     32
14.5877     28
14.5928     34
14.5978     37
14.6028     29
14.6078     48
14.6128     34
14.6178     25
14.6228     39
14.6278     22
14.6328     37
14.6378     35
14.6428     28
14.6478     38
14.6528     34
14.6578     34
14.6628     36
14.6678     26
14.6728     41
14.6778     41
14.6828     35
14.6878     31
14.6928     41
14.6978     42
14.7028     40
14.7078     39
14.7128     39
14.7179     33
14.7229     61
14.7279     36
14.7329     49
14.7379     47
14.7429     41
14.7479     37
14.7529     51
14.7579     50
14.7629     31
14.7679     38
14.7729     26
14.7779     29
14.7829     38
14.7879     39
14.7929     42
14.7979     49
14.8029     45
14.8079     50
14.8129     55
14.8179     52
14.8229     40
14.8279     44
14.8329     52
14.8379     61
 14.843     45
 14.848     64
 14.853     38
 14.858     59
 14.863     59
 14.868     57
 14.873     53
 14.878     69
 14.883     61
 14.888     49
 14.893     70
 14.898     48
 14.903     50
 14.908     51
 14.913     83
 14.918     53
 14.923     56
 14.928     72
 14.933     53
 14.938     68
 14.943     67
 14.948     60
 14.953     66
 14.958     75
 14.963     70
14.9681     74
14.9731     75
14.9781     71
14.9831     66
14.9881     55
14.9931     65
14.9981     87
15.0031     67
15.0081     71
15.0131     66
15.0181     73
15.0231     71
15.0281     60
15.0331     66
15.0381     49
15.0431     72
15.0481     74
15.0531     54
15.0581     62
15.0631     75
15.0681     66
15.0731     63
15.0781     59
15.0831     61
15.0881     67
15.0932     60
15.0982     58
15.1032     82
15.1082     62
15.1132     74
15.1182     77
15.1232     63
15.1282     75
15.1332     84
15.1382     80
15.1432     60
15.1482     73
15.1532     77
15.1582     84
15.1632     77
15.1682     75
15.1732     85
15.1782     68
15.1832     77
15.1882     91
15.1932     87
15.1982     64
15.2032     82
15.2082     73
15.2132     81
15.2183     76
15.2233     73
15.2283     79
15.2333     78
15.2383     74
15.2433     93
15.2483     91
15.2533     86
15.2583     88
15.2633     76
15.2683     83
15.2733     82
15.2783     85
15.2833     98
15.2883     91
15.2933     77
15.2983     95
15.3033     93
15.3083     86
15.3133     75
15.3183    100
15.3233     88
15.3283     92
15.3333     93
15.3383    102
15.3434     89
15.3484    101
15.3534    117
15.3584    101
15.3634    125
15.3684     92
15.3734    102
15.3784    101
15.3834     99
15.3884    116
15.3934     91
15.3984    101
15.4034     99
15.4084    103
15.4134    115
15.4184    118
15.4234    108
15.4284    130
15.4334    135
15.4384    125
15.4434    124
15.4484    103
15.4534    121
15.4584    113
15.4634    129
15.4685    112
15.4735    142
15.4785    134
15.4835    137
15.4885    136
15.4935    121
15.4985    119
15.5035    118
15.5085    141
15.5135    163
15.5185    124
15.5235    136
15.5285    121
15.5335    129
15.5385    145
15.5435    139
15.5485    144
15.5535    149
15.5585    125
15.5635    148
15.5685    161
15.5735    157
15.5785    144
15.5835    171
15.5885    159
15.5936    152
15.5986    184
15.6036    186
15.6086    173
15.6136    193
15.6186    155
15.6236    184
15.6286    189
15.6336    205
15.6386    210
15.6436    216
15.6486    210
15.6536    203
15.6586    247
15.6636    243
15.6686    249
15.6736    273
15.6786    219
15.6836    275
15.6886    277
15.6936    263
15.6986    296
15.7036    302
15.7086    328
15.7136    336
15.7187    315
15.7237    340
15.7287    391
15.7337    389
15.7387    396
15.7437    405
15.7487    429
15.7537    432
15.7587    442
15.7637    439
15.7687    487
15.7737    443
15.7787    495
15.7837    508
15.7887    484
15.7937    538
15.7987    520
15.8037    591
15.8087    550
15.8137    555
15.8187    518
15.8237    559
15.8287    538
15.8337    514
15.8387    564
15.8438    528
15.8488    574
15.8538    554
15.8588    502
15.8638    563
15.8688    510
15.8738    530
15.8788    494
15.8838    507
15.8888    513
15.8938    468
15.8988    503
15.9038    470
15.9088    449
15.9138    480
15.9188    516
15.9238    474
15.9288    463
15.9338    452
15.9388    485
15.9438    417
15.9488    408
15.9538    442
15.9588    416
15.9638    453
15.9689    436
15.9739    409
15.9789    420
15.9839    462
15.9889    436
15.9939    441
15.9989    434
16.0039    425
16.0089    423
16.0139    445
16.0189    452
16.0239    433
16.0289    423
16.0339    444
16.0389    510
16.0439    453
16.0489    414
16.0539    445
16.0589    504
16.0639    482
16.0689    519
16.0739    464
16.0789    499
16.0839    489
16.0889    562
 16.094    537
 16.099    503
 16.104    527
 16.109    581
 16.114    569
 16.119    578
 16.124    602
 16.129    608
 16.134    557
 16.139    606
 16.144    566
 16.149    624
 16.154    637
 16.159    643
 16.164    658
 16.169    664
 16.174    684
 16.179    611
 16.184    719
 16.189    707
 16.194    758
 16.199    745
 16.204    715
 16.209    735
 16.214    767
16.2191    796
16.2241    792
16.2291    813
16.2341    787
16.2391    904
16.2441    812
16.2491    850
16.2541    907
16.2591    908
16.2641    931
16.2691    990
16.2741    992
16.2791    995
16.2841    979
16.2891   1017
16.2941   1018
16.2991   1041
16.3041   1040
16.3091   1151
16.3141   1154
16.3191   1142
16.3241   1122
16.3291   1181
16.3341   1223
16.3391   1197
16.3442   1241
16.3492   1283
16.3542   1312
16.3592   1275
16.3642   1333
16.3692   1361
16.3742   1310
16.3792   1366
16.3842   1363
16.3892   1393
16.3942   1464
16.3992   1412
16.4042   1493
16.4092   1492
16.4142   1599
16.4192   1588
16.4242   1562
16.4292   1649
16.4342   1597
16.4392   1660
16.4442   1687
16.4492   1680
16.4542   1778
16.4592   1792
16.4642   1756
16.4693   1785
16.4743   1817
16.4793   1769
16.4843   1914
16.4893   1926
16.4943   1939
16.4993   1908
16.5043   1998
16.5093   1983
16.5143   2092
16.5193   1967
16.5243   1985
16.5293   2025
16.5343   2069
16.5393   2046
16.5443   2216
16.5493   2083
16.5543   2074
16.5593   2166
16.5643   2357
16.5693   2238
16.5743   2205
16.5793   2253
16.5843   2360
16.5893   2307
16.5944   2279
16.5994   2351
16.6044   2465
16.6094   2354
16.6144   2372
16.6194   2373
16.6244   2423
16.6294   2379
16.6344   2486
16.6394   2440
16.6444   2463
16.6494   2427
16.6544   2492
16.6594   2519
16.6644   2505
16.6694   2641
16.6744   2526
16.6794   2567
16.6844   2564
16.6894   2559
16.6944   2571
16.6994   2671
16.7044   2658
16.7094   2595
16.7144   2658
16.7195   2705
16.7245   2681
16.7295   2635
16.7345   2654
16.7395   2648
16.7445   2647
16.7495   2623
16.7545   2639
16.7595   2687
16.7645   2672
16.7695   2688
16.7745   2658
16.7795   2649
16.7845   2670
16.7895   2672
16.7945   2799
16.7995   2768
16.8045   2679
16.8095   2611
16.8145   2610
16.8195   2684
16.8245   2590
16.8295   2693
16.8345   2706
16.8395   2730
16.8446   2810
16.8496   2751
16.8546   2803
16.8596   2730
16.8646   2722
16.8696   2654
16.8746   2659
16.8796   2656
16.8846   2653
16.8896   2817
16.8946   2707
16.8996   2739
16.9046   2560
16.9096   2605
16.9146   2622
16.9196   2652
16.9246   2599
16.9296   2648
16.9346   2639
16.9396   2575
16.9446   2629
16.9496   2667
16.9546   2580
16.9596   2615
16.9646   2670
16.9697   2602
16.9747   2650
16.9797   2512
16.9847   2551
16.9897   2618
16.9947   2451
16.9997   2499
17.0047   2434
17.0097   2490
17.0147   2457
17.0197   2423
17.0247   2482
17.0297   2448
17.0347   2471
17.0397   2368
17.0447   2331
17.0497   2432
17.0547   2292
17.0597   2369
17.0647   2413
17.0697   2412
17.0747   2190
17.0797   2233
17.0847   2278
17.0897   2305
17.0948   2131
17.0998   2205
17.1048   2252
17.1098   2163
17.1148   2239
17.1198   2099
17.1248   2085
17.1298   2178
17.1348   2028
17.1398   2127
17.1448   2049
17.1498   2079
17.1548   2003
17.1598   2105
17.1648   1989
17.1698   2018
17.1748   2018
17.1798   2068
17.1848   2027
17.1898   2076
17.1948   2000
17.1998   1982
17.2048   1911
17.2098   2056
17.2148   1984
17.2199   2059
17.2249   2077
17.2299   2072
17.2349   2077
17.2399   2151
17.2449   2132
17.2499   2142
17.2549   2227
17.2599   2185
17.2649   2156
17.2699   2306
17.2749   2315
17.2799   2333
17.2849   2386
17.2899   2497
17.2949   2473
17.2999   2616
17.3049   2506
17.3099   2648
17.3149   2733
17.3199   2899
17.3249   2794
17.3299   2879
17.3349   2949
17.3399   3055
 17.345   3006
  17.35   3216
 17.355   3227
  17.36   3247
 17.365   3290
  17.37   3356
 17.375   3377
  17.38   3561
 17.385   3471
  17.39   3502
 17.395   3615
   17.4   3588
 17.405   3692
  17.41   3632
 17.415   3637
  17.42   3708
 17.425   3672
  17.43   3716
 17.435   3671
  17.44   3663
 17.445   3610
  17.45   3664
 17.455   3626
  17.46   3484
 17.465   3575
17.4701   3604
17.4751   3474
17.4801   3383
17.4851   3215
17.4901   3221
17.4951   3191
17.5001   3010
17.5051   2951
17.5101   2822
17.5151   2763
17.5201   2677
17.5251   2545
17.5301   2497
17.5351   2354
17.5401   2228
17.5451   2160
17.5501   1986
17.5551   2008
17.5601   1861
17.5651   1774
17.5701   1697
17.5751   1509
17.5801   1372
17.5851   1377
17.5901   1298
17.5952   1174
17.6002   1090
17.6052   1033
17.6102    980
17.6152    875
17.6202    839
17.6252    759
17.6302    674
17.6352    639
17.6402    607
17.6452    567
17.6502    523
17.6552    452
17.6602    428
17.6652    396
17.6702    349
17.6752    332
17.6802    309
17.6852    331
17.6902    234
17.6952    250
17.7002    195
17.7052    207
17.7102    171
17.7152    180
17.7203    196
17.7253    180
17.7303    161
17.7353    153
17.7403    153
17.7453    158
17.7503    143
17.7553     99
17.7603     99
17.7653    113
17.7703    125
17.7753    104
17.7803    126
17.7853    104
17.7903    112
17.7953     93
17.8003     97
17.8053     93
17.8103    114
17.8153    105
17.8203     97
17.8253     82
17.8303     65
17.8353     98
17.8403     92
17.8454     86
17.8504     83
17.8554     77
17.8604     86
17.8654     92
17.8704     53
17.8754     70
17.8804     62
17.8854     61
17.8904     73
17.8954     72
17.9004     63
17.9054     62
17.9104     63
17.9154     70
17.9204     61
17.9254     61
17.9304     61
17.9354     56
17.9404     59
17.9454     54
17.9504     52
17.9554     53
17.9604     54
17.9654     62
17.9705     63
17.9755     46
17.9805     56
17.9855     53
17.9905     49
17.9955     48
18.0005     44
18.0055     35
18.0105     49
18.0155     46
18.0205     39
18.0255     39
18.0305     30
18.0355     48
18.0405     39
18.0455     31
18.0505     32
18.0555     42
18.0605     43
18.0655     35
18.0705     29
18.0755     33
18.0805     26
18.0855     32
18.0905     38
18.0956     45
18.1006     30
18.1056     28
18.1106     31
18.1156     50
18.1206     23
18.1256     22
18.1306     20
18.1356     26
18.1406     22
18.1456     34
18.1506     29
18.1556     20
18.1606     33
18.1656     27
18.1706     22
18.1756     30
18.1806     12
18.1856     21
18.1906     13
18.1956     14
18.2006     15
18.2056     20
18.2106     18
18.2156     16
18.2207     19
18.2257     19
18.2307     16
18.2357     20
18.2407     14
18.2457     19
18.2507     14
18.2557     18
18.2607     17
18.2657     17
18.2707     18
18.2757     14
18.2807     13
18.2857     18
18.2907     24
18.2957     14
18.3007     12
18.3057     18
18.3107     17
18.3157     11
18.3207     13
18.3257      9
18.3307     14
18.3357      8
18.3407     14
18.3458     11
18.3508     10
18.3558     13
18.3608     13
18.3658     11
18.3708      9
18.3758      7
18.3808     11
18.3858      9
18.3908      7
18.3958      8
18.4008     11
18.4058      9
18.4108     10
18.4158      6
18.4208      7
18.4258     10
18.4308     18
18.4358      6
18.4408      5
18.4458      6
18.4508      4
18.4558      6
18.4608      6
18.4658      3
18.4709      4
18.4759      8
18.4809     13
18.4859      6
18.4909      6
18.4959      6
18.5009      5
18.5059      9
18.5109      6
18.5159     10
18.5209      8
18.5259      3
18.5309      9
18.5359      4
18.5409      6
18.5459      2
18.5509      4
18.5559      9
18.5609      6
18.5659     12
18.5709      5
18.5759      7
18.5809      4
18.5859      4
18.5909      8
 18.596      3
 18.601      5
 18.606      3
 18.611      4
 18.616      7
 18.621      4
 18.626      4
 18.631      6
 18.636      5
 18.641      7
 18.646      6
 18.651      2
 18.656      7
 18.661      7
 18.666      5
 18.671      4
 18.676      2
 18.681      7
 18.686      8
 18.691      2
 18.696      3
 18.701      5
 18.706      6
 18.711      3
 18.716      3
18.7211      4
18.7261      5
18.7311      1
18.7361      6
18.7411      3
18.7461      5
18.7511      5
18.7561      6
18.7611      8
18.7661      3
18.7711      5
18.7761      3
18.7811      5
18.7861      4
18.7911      3
18.7961      4
18.8011      2
18.8061      7
18.8111      4
18.8161      4
18.8211      7
18.8261      3
18.8311      2
18.8361      5
18.8411      3
18.8462      5
18.8512      2
18.8562      2
18.8612      3
18.8662      4
18.8712      1
18.8762      4
18.8812      5
18.8862      4
18.8912      2
18.8962      4
18.9012      0
18.9062      6
18.9112      4
18.9162      2
18.9212      3
18.9262      1
18.9312      2
18.9362      4
18.9412      2
18.9462      3
18.9512      4
18.9562      2
18.9612      4
18.9662      5
18.9713      6
18.9763      2
18.9813      5
18.9863      0
18.9913      1
18.9963      3
19.0013      1
19.0063      8
19.0113      5
19.0163      4
19.0213      1
19.0263      1
19.0313      4
19.0363      1
19.0413      3
19.0463      0
19.0513      3
19.0563      4
19.0613      4
19.0663      1
19.0713      2
19.0763      4
19.0813      5
19.0863      3
19.0913      3
19.0964      1
19.1014      1
19.1064      2
19.1114      0
19.1164      5
19.1214      3
19.1264      2
19.1314      3
19.1364      3
19.1414      4
19.1464      0
19.1514      2
19.1564      1
19.1614      2
19.1664      2
19.1714      1
19.1764      3
19.1814      2
19.1864      4
19.1914      1
19.1964      2
19.2014      1
19.2064      2
19.2114      5
19.2164      6
19.2215      2
19.2265      2
19.2315      0
19.2365      4
19.2415      1
19.2465      1
19.2515      3
19.2565      1
19.2615      1
19.2665      3
19.2715      1
19.2765      1
19.2815      2
19.2865      0
19.2915      1
19.2965      3
19.3015      2
19.3065      2
19.3115      2
19.3165      5
19.3215      3
19.3265      4
19.3315      3
19.3365      3
19.3415      1
19.3466      3
19.3516      3
19.3566      0
19.3616      3
19.3666      1
19.3716      0
19.3766      4
19.3816      2
19.3866      3
19.3916      1
19.3966      2
19.4016      4
19.4066      0
19.4116      1
19.4166      2
19.4216      3
19.4266      1
19.4316      1
19.4366      2
19.4416      0
19.4466      1
19.4516      4
19.4566      3
19.4616      2
19.4666      1
19.4717      2
19.4767      4
19.4817      3
19.4867      1
19.4917      2
19.4967      3
19.5017      3
19.5067      2
19.5117      2
19.5167      4
19.5217      4
19.5267      1
19.5317      2
19.5367      3
19.5417      3
19.5467      2
19.5517      6
19.5567      0
19.5617      6
19.5667      2
19.5717      4
19.5767      4
19.5817      3
19.5867      2
19.5917      0
19.5968      3
19.6018      3
19.6068      2
19.6118      4
19.6168      1
19.6218      2
19.6268      4
19.6318      2
19.6368      4
19.6418      6
19.6468      2
19.6518      4
19.6568      2
19.6618      0
19.6668      1
19.6718      4
19.6768      4
19.6818      4
19.6868      2
19.6918      3
19.6968      0
19.7018      2
19.7068      3
19.7118      1
19.7168      3
19.7219      3
19.7269      0
19.7319      0
19.7369      0
19.7419      3
19.7469      2
19.7519      0
19.7569      2
19.7619      3
19.7669      1
19.7719      2
19.7769      0
19.7819      2
19.7869      2
19.7919      1
19.7969      0
19.8019      0
19.8069      0
19.8119      1
19.8169      0
19.8219      0
19.8269      2
19.8319      1
19.8369      1
19.8419      0
 19.847      1
 19.852      0
 19.857      0
 19.862      1
 19.867      0
 19.872      1
 19.877      0
 19.882      0
 19.887      0
 19.892      0
 19.897      2
 19.902      0
 19.907      0
 19.912      0
 19.917      1
 19.922      0
 19.927      0
 19.932      1
 19.937      1
 19.942      0
 19.947      0
 19.952      0
 19.957      1
 19.962      0
 19.967      0
19.9721      1
19.9771      0
19.9821      0
19.9871      1
19.9921      0
19.9971      0
20.0021      1
20.0071      0
