RÖNTEC GmbH Berlin, Germany
Quantax 1.2

Date: 3/19/2019 10:07:08 AM
Real time: 640740
Life time: 600000
Pulse density: 22299


Detector type: XFLASH
Window type: 
Detector thickness: 0.45
Si dead layer:0

Calibration, lin.: 5.004
Calibration, abs.: -484.3
Mn FWHM: 135.26
Fano factor: 0.11
Channels: 4096

Energy Counts
-0.4843      0
-0.4793      0
-0.4743      0
-0.4693      0
-0.4643      0
-0.4593      0
-0.4543      0
-0.4493      0
-0.4443      0
-0.4393      0
-0.4343      0
-0.4293      0
-0.4243      0
-0.4192      0
-0.4142      0
-0.4092      0
-0.4042      0
-0.3992      0
-0.3942      0
-0.3892      0
-0.3842      0
-0.3792      0
-0.3742      0
-0.3692      0
-0.3642      0
-0.3592      0
-0.3542      0
-0.3492      0
-0.3442      0
-0.3392      0
-0.3342      0
-0.3292      0
-0.3242      0
-0.3192      0
-0.3142      0
-0.3092      0
-0.3042      0
-0.2992      0
-0.2941      0
-0.2891      0
-0.2841      0
-0.2791      0
-0.2741      0
-0.2691      0
-0.2641      0
-0.2591      0
-0.2541      0
-0.2491      0
-0.2441      0
-0.2391      0
-0.2341      0
-0.2291      0
-0.2241      0
-0.2191      0
-0.2141      0
-0.2091      0
-0.2041      0
-0.1991      0
-0.1941      0
-0.1891      0
-0.1841      0
-0.1791      0
-0.1741      0
 -0.169      0
 -0.164      0
 -0.159      0
 -0.154      0
 -0.149      0
 -0.144      5
 -0.139      4
 -0.134     10
 -0.129     16
 -0.124     35
 -0.119     68
 -0.114    150
 -0.109    281
 -0.104    567
 -0.099   1074
 -0.094   1964
 -0.089   3379
 -0.084   5902
 -0.079   9524
 -0.074  15758
 -0.069  24210
 -0.064  36616
 -0.059  53629
 -0.054  76171
 -0.049 104011
-0.0439 138649
-0.0389 177781
-0.0339 222018
-0.0289 267868
-0.0239 313696
-0.0189 355784
-0.0139 389385
-0.0089 413986
-0.0039 426373
 0.0011 423657
 0.0061 409449
 0.0111 385124
 0.0161 347948
 0.0211 304819
 0.0261 259116
 0.0311 213311
 0.0361 170036
 0.0411 131769
 0.0461  98695
 0.0511  71358
 0.0561  50648
 0.0611  34487
 0.0661  22680
 0.0711  14766
 0.0761   9170
 0.0812   5762
 0.0862   3249
 0.0912   1932
 0.0962   1043
 0.1012    636
 0.1062    368
 0.1112    211
 0.1162    131
 0.1212     85
 0.1262     72
 0.1312     41
 0.1362     56
 0.1412     34
 0.1462     41
 0.1512     30
 0.1562     25
 0.1612     19
 0.1662     26
 0.1712     17
 0.1762     22
 0.1812     30
 0.1862     23
 0.1912     15
 0.1962     16
 0.2012     17
 0.2063     13
 0.2113     14
 0.2163     13
 0.2213     13
 0.2263      5
 0.2313     16
 0.2363     15
 0.2413     12
 0.2463      7
 0.2513     10
 0.2563      4
 0.2613      8
 0.2663      2
 0.2713      6
 0.2763      3
 0.2813      3
 0.2863      1
 0.2913      1
 0.2963      2
 0.3013      2
 0.3063      1
 0.3113      1
 0.3163      0
 0.3213      2
 0.3263      7
 0.3314     14
 0.3364     87
 0.3414    258
 0.3464    487
 0.3514    776
 0.3564    973
 0.3614   1029
 0.3664   1073
 0.3714    979
 0.3764    999
 0.3814   1027
 0.3864    937
 0.3914   1024
 0.3964    949
 0.4014    944
 0.4064    886
 0.4114    931
 0.4164    964
 0.4214    949
 0.4264    914
 0.4314    889
 0.4364    958
 0.4414    897
 0.4464    942
 0.4514    928
 0.4565    880
 0.4615    882
 0.4665    904
 0.4715    873
 0.4765    885
 0.4815    847
 0.4865    828
 0.4915    847
 0.4965    850
 0.5015    907
 0.5065    867
 0.5115    872
 0.5165    817
 0.5215    797
 0.5265    881
 0.5315    824
 0.5365    844
 0.5415    867
 0.5465    767
 0.5515    806
 0.5565    818
 0.5615    766
 0.5665    829
 0.5715    816
 0.5765    816
 0.5816    796
 0.5866    814
 0.5916    784
 0.5966    782
 0.6016    770
 0.6066    818
 0.6116    771
 0.6166    745
 0.6216    763
 0.6266    735
 0.6316    760
 0.6366    751
 0.6416    745
 0.6466    723
 0.6516    751
 0.6566    756
 0.6616    755
 0.6666    742
 0.6716    736
 0.6766    713
 0.6816    728
 0.6866    725
 0.6916    703
 0.6966    747
 0.7016    739
 0.7067    755
 0.7117    732
 0.7167    741
 0.7217    736
 0.7267    726
 0.7317    662
 0.7367    699
 0.7417    742
 0.7467    711
 0.7517    726
 0.7567    726
 0.7617    702
 0.7667    728
 0.7717    704
 0.7767    679
 0.7817    725
 0.7867    716
 0.7917    655
 0.7967    699
 0.8017    696
 0.8067    643
 0.8117    675
 0.8167    669
 0.8217    653
 0.8267    673
 0.8318    690
 0.8368    672
 0.8418    665
 0.8468    707
 0.8518    700
 0.8568    651
 0.8618    645
 0.8668    720
 0.8718    659
 0.8768    675
 0.8818    689
 0.8868    612
 0.8918    690
 0.8968    652
 0.9018    655
 0.9068    636
 0.9118    647
 0.9168    684
 0.9218    652
 0.9268    596
 0.9318    608
 0.9368    697
 0.9418    598
 0.9468    632
 0.9518    640
 0.9569    625
 0.9619    617
 0.9669    638
 0.9719    627
 0.9769    594
 0.9819    627
 0.9869    643
 0.9919    612
 0.9969    603
 1.0019    579
 1.0069    637
 1.0119    573
 1.0169    623
 1.0219    637
 1.0269    525
 1.0319    589
 1.0369    584
 1.0419    585
 1.0469    572
 1.0519    579
 1.0569    580
 1.0619    545
 1.0669    595
 1.0719    545
 1.0769    541
  1.082    553
  1.087    565
  1.092    517
  1.097    514
  1.102    521
  1.107    559
  1.112    491
  1.117    515
  1.122    516
  1.127    530
  1.132    504
  1.137    508
  1.142    479
  1.147    508
  1.152    484
  1.157    502
  1.162    480
  1.167    463
  1.172    488
  1.177    495
  1.182    471
  1.187    500
  1.192    462
  1.197    445
  1.202    447
 1.2071    483
 1.2121    465
 1.2171    434
 1.2221    487
 1.2271    470
 1.2321    452
 1.2371    503
 1.2421    475
 1.2471    422
 1.2521    452
 1.2571    437
 1.2621    443
 1.2671    455
 1.2721    427
 1.2771    449
 1.2821    431
 1.2871    427
 1.2921    428
 1.2971    400
 1.3021    445
 1.3071    411
 1.3121    435
 1.3171    469
 1.3221    391
 1.3271    419
 1.3322    383
 1.3372    395
 1.3422    411
 1.3472    390
 1.3522    408
 1.3572    367
 1.3622    404
 1.3672    417
 1.3722    397
 1.3772    429
 1.3822    407
 1.3872    382
 1.3922    376
 1.3972    387
 1.4022    412
 1.4072    422
 1.4122    423
 1.4172    394
 1.4222    424
 1.4272    433
 1.4322    416
 1.4372    462
 1.4422    463
 1.4472    415
 1.4522    449
 1.4573    449
 1.4623    462
 1.4673    514
 1.4723    453
 1.4773    457
 1.4823    477
 1.4873    477
 1.4923    449
 1.4973    440
 1.5023    449
 1.5073    490
 1.5123    461
 1.5173    482
 1.5223    464
 1.5273    436
 1.5323    451
 1.5373    427
 1.5423    423
 1.5473    444
 1.5523    417
 1.5573    427
 1.5623    434
 1.5673    405
 1.5723    424
 1.5773    377
 1.5824    439
 1.5874    402
 1.5924    410
 1.5974    395
 1.6024    399
 1.6074    387
 1.6124    359
 1.6174    391
 1.6224    410
 1.6274    400
 1.6324    464
 1.6374    463
 1.6424    488
 1.6474    551
 1.6524    594
 1.6574    665
 1.6624    738
 1.6674    855
 1.6724    990
 1.6774   1175
 1.6824   1380
 1.6874   1541
 1.6924   1746
 1.6974   2002
 1.7024   2219
 1.7075   2428
 1.7125   2623
 1.7175   2857
 1.7225   3105
 1.7275   3175
 1.7325   3298
 1.7375   3388
 1.7425   3358
 1.7475   3307
 1.7525   3230
 1.7575   3050
 1.7625   3005
 1.7675   2793
 1.7725   2499
 1.7775   2370
 1.7825   2201
 1.7875   1960
 1.7925   1738
 1.7975   1513
 1.8025   1410
 1.8075   1250
 1.8125   1136
 1.8175    988
 1.8225    869
 1.8275    798
 1.8326    746
 1.8376    663
 1.8426    678
 1.8476    648
 1.8526    649
 1.8576    648
 1.8626    616
 1.8676    603
 1.8726    631
 1.8776    657
 1.8826    711
 1.8876    752
 1.8926    756
 1.8976    858
 1.9026    877
 1.9076    949
 1.9126    974
 1.9176   1017
 1.9226   1087
 1.9276   1095
 1.9326   1182
 1.9376   1260
 1.9426   1278
 1.9476   1234
 1.9526   1205
 1.9577   1249
 1.9627   1193
 1.9677   1201
 1.9727   1084
 1.9777   1106
 1.9827   1030
 1.9877    943
 1.9927    907
 1.9977    840
 2.0027    789
 2.0077    760
 2.0127    673
 2.0177    625
 2.0227    590
 2.0277    528
 2.0327    509
 2.0377    500
 2.0427    423
 2.0477    442
 2.0527    492
 2.0577    430
 2.0627    420
 2.0677    392
 2.0727    397
 2.0777    403
 2.0828    384
 2.0878    360
 2.0928    390
 2.0978    391
 2.1028    390
 2.1078    421
 2.1128    358
 2.1178    403
 2.1228    381
 2.1278    358
 2.1328    415
 2.1378    371
 2.1428    357
 2.1478    367
 2.1528    364
 2.1578    391
 2.1628    335
 2.1678    367
 2.1728    372
 2.1778    365
 2.1828    384
 2.1878    400
 2.1928    374
 2.1978    388
 2.2028    398
 2.2079    386
 2.2129    413
 2.2179    425
 2.2229    424
 2.2279    414
 2.2329    445
 2.2379    479
 2.2429    481
 2.2479    507
 2.2529    527
 2.2579    535
 2.2629    636
 2.2679    564
 2.2729    636
 2.2779    648
 2.2829    649
 2.2879    654
 2.2929    651
 2.2979    648
 2.3029    715
 2.3079    676
 2.3129    699
 2.3179    674
 2.3229    671
 2.3279    626
  2.333    623
  2.338    590
  2.343    552
  2.348    564
  2.353    500
  2.358    503
  2.363    472
  2.368    452
  2.373    408
  2.378    409
  2.383    405
  2.388    379
  2.393    344
  2.398    353
  2.403    352
  2.408    349
  2.413    327
  2.418    336
  2.423    342
  2.428    345
  2.433    328
  2.438    339
  2.443    350
  2.448    321
  2.453    324
 2.4581    370
 2.4631    344
 2.4681    366
 2.4731    316
 2.4781    328
 2.4831    347
 2.4881    343
 2.4931    342
 2.4981    347
 2.5031    343
 2.5081    340
 2.5131    335
 2.5181    318
 2.5231    362
 2.5281    327
 2.5331    344
 2.5381    370
 2.5431    367
 2.5481    354
 2.5531    376
 2.5581    381
 2.5631    337
 2.5681    391
 2.5731    423
 2.5781    472
 2.5832    427
 2.5882    449
 2.5932    467
 2.5982    460
 2.6032    484
 2.6082    492
 2.6132    490
 2.6182    465
 2.6232    474
 2.6282    495
 2.6332    474
 2.6382    466
 2.6432    424
 2.6482    464
 2.6532    473
 2.6582    477
 2.6632    480
 2.6682    440
 2.6732    419
 2.6782    430
 2.6832    419
 2.6882    379
 2.6932    412
 2.6982    394
 2.7032    381
 2.7083    390
 2.7133    353
 2.7183    355
 2.7233    347
 2.7283    376
 2.7333    325
 2.7383    326
 2.7433    356
 2.7483    363
 2.7533    342
 2.7583    379
 2.7633    372
 2.7683    314
 2.7733    374
 2.7783    343
 2.7833    311
 2.7883    369
 2.7933    338
 2.7983    354
 2.8033    354
 2.8083    349
 2.8133    339
 2.8183    370
 2.8233    369
 2.8283    342
 2.8334    364
 2.8384    334
 2.8434    333
 2.8484    368
 2.8534    382
 2.8584    397
 2.8634    385
 2.8684    400
 2.8734    398
 2.8784    388
 2.8834    436
 2.8884    465
 2.8934    475
 2.8984    502
 2.9034    484
 2.9084    544
 2.9134    523
 2.9184    568
 2.9234    608
 2.9284    626
 2.9334    614
 2.9384    615
 2.9434    696
 2.9484    705
 2.9534    710
 2.9585    672
 2.9635    620
 2.9685    661
 2.9735    671
 2.9785    647
 2.9835    639
 2.9885    644
 2.9935    625
 2.9985    619
 3.0035    647
 3.0085    575
 3.0135    521
 3.0185    491
 3.0235    475
 3.0285    463
 3.0335    481
 3.0385    428
 3.0435    409
 3.0485    415
 3.0535    429
 3.0585    397
 3.0635    381
 3.0685    351
 3.0735    417
 3.0785    340
 3.0836    389
 3.0886    409
 3.0936    356
 3.0986    365
 3.1036    404
 3.1086    386
 3.1136    389
 3.1186    389
 3.1236    393
 3.1286    427
 3.1336    413
 3.1386    425
 3.1436    446
 3.1486    452
 3.1536    447
 3.1586    441
 3.1636    443
 3.1686    473
 3.1736    456
 3.1786    492
 3.1836    477
 3.1886    541
 3.1936    549
 3.1986    558
 3.2036    620
 3.2087    617
 3.2137    698
 3.2187    723
 3.2237    823
 3.2287    900
 3.2337    970
 3.2387    983
 3.2437   1194
 3.2487   1298
 3.2537   1516
 3.2587   1602
 3.2637   1759
 3.2687   1924
 3.2737   2038
 3.2787   2160
 3.2837   2318
 3.2887   2516
 3.2937   2600
 3.2987   2688
 3.3037   2773
 3.3087   2831
 3.3137   2997
 3.3187   3014
 3.3237   2945
 3.3287   2816
 3.3338   2762
 3.3388   2608
 3.3438   2571
 3.3488   2446
 3.3538   2231
 3.3588   2063
 3.3638   1971
 3.3688   1803
 3.3738   1695
 3.3788   1449
 3.3838   1330
 3.3888   1203
 3.3938   1098
 3.3988   1021
 3.4038    967
 3.4088    845
 3.4138    790
 3.4188    679
 3.4238    666
 3.4288    648
 3.4338    618
 3.4388    599
 3.4438    584
 3.4488    604
 3.4538    579
 3.4589    579
 3.4639    584
 3.4689    598
 3.4739    624
 3.4789    615
 3.4839    661
 3.4889    666
 3.4939    761
 3.4989    790
 3.5039    813
 3.5089    917
 3.5139    934
 3.5189   1049
 3.5239   1148
 3.5289   1268
 3.5339   1460
 3.5389   1599
 3.5439   1923
 3.5489   2127
 3.5539   2606
 3.5589   2906
 3.5639   3661
 3.5689   4161
 3.5739   4972
 3.5789   5994
  3.584   7143
  3.589   8778
  3.594  10283
  3.599  12474
  3.604  14426
  3.609  17256
  3.614  20208
  3.619  23822
  3.624  27319
  3.629  31496
  3.634  35554
  3.639  39845
  3.644  44497
  3.649  49209
  3.654  53895
  3.659  58405
  3.664  62032
  3.669  65931
  3.674  68866
  3.679  71572
  3.684  73365
  3.689  74691
  3.694  75902
  3.699  75671
  3.704  74187
 3.7091  72087
 3.7141  70152
 3.7191  66634
 3.7241  63521
 3.7291  59246
 3.7341  55029
 3.7391  50525
 3.7441  45697
 3.7491  40800
 3.7541  36532
 3.7591  32259
 3.7641  28229
 3.7691  24382
 3.7741  20547
 3.7791  17791
 3.7841  14789
 3.7891  12072
 3.7941  10282
 3.7991   8321
 3.8041   6833
 3.8091   5587
 3.8141   4326
 3.8191   3557
 3.8241   2834
 3.8291   2307
 3.8342   1915
 3.8392   1586
 3.8442   1395
 3.8492   1210
 3.8542   1110
 3.8592   1024
 3.8642    990
 3.8692   1036
 3.8742   1001
 3.8792    987
 3.8842   1116
 3.8892   1262
 3.8942   1350
 3.8992   1562
 3.9042   1710
 3.9092   1942
 3.9142   2217
 3.9192   2564
 3.9242   2790
 3.9292   3255
 3.9342   3536
 3.9392   4105
 3.9442   4648
 3.9492   5296
 3.9542   5806
 3.9593   6418
 3.9643   7262
 3.9693   7747
 3.9743   8509
 3.9793   9086
 3.9843   9572
 3.9893  10171
 3.9943  10848
 3.9993  11080
 4.0043  11423
 4.0093  11769
 4.0143  11689
 4.0193  11896
 4.0243  11833
 4.0293  11524
 4.0343  11321
 4.0393  11042
 4.0443  10238
 4.0493   9931
 4.0543   9166
 4.0593   8586
 4.0643   7880
 4.0693   7253
 4.0743   6536
 4.0793   5862
 4.0844   5073
 4.0894   4499
 4.0944   3904
 4.0994   3368
 4.1044   2837
 4.1094   2520
 4.1144   2147
 4.1194   1869
 4.1244   1545
 4.1294   1355
 4.1344   1100
 4.1394    805
 4.1444    745
 4.1494    614
 4.1544    545
 4.1594    493
 4.1644    419
 4.1694    378
 4.1744    328
 4.1794    293
 4.1844    288
 4.1894    284
 4.1944    261
 4.1994    273
 4.2044    241
 4.2095    205
 4.2145    232
 4.2195    225
 4.2245    218
 4.2295    194
 4.2345    205
 4.2395    233
 4.2445    219
 4.2495    236
 4.2545    207
 4.2595    210
 4.2645    214
 4.2695    243
 4.2745    225
 4.2795    197
 4.2845    218
 4.2895    245
 4.2945    213
 4.2995    211
 4.3045    227
 4.3095    216
 4.3145    228
 4.3195    222
 4.3245    232
 4.3295    234
 4.3346    241
 4.3396    220
 4.3446    252
 4.3496    260
 4.3546    260
 4.3596    284
 4.3646    298
 4.3696    315
 4.3746    341
 4.3796    357
 4.3846    360
 4.3896    431
 4.3946    470
 4.3996    519
 4.4046    570
 4.4096    628
 4.4146    791
 4.4196    801
 4.4246    909
 4.4296    979
 4.4346   1177
 4.4396   1207
 4.4446   1402
 4.4496   1527
 4.4546   1650
 4.4597   1870
 4.4647   1964
 4.4697   2057
 4.4747   2234
 4.4797   2387
 4.4847   2416
 4.4897   2533
 4.4947   2649
 4.4997   2629
 4.5047   2696
 4.5097   2711
 4.5147   2665
 4.5197   2675
 4.5247   2676
 4.5297   2558
 4.5347   2480
 4.5397   2393
 4.5447   2203
 4.5497   2177
 4.5547   2003
 4.5597   1819
 4.5647   1721
 4.5697   1607
 4.5747   1521
 4.5797   1436
 4.5848   1273
 4.5898   1120
 4.5948   1104
 4.5998    992
 4.6048    906
 4.6098    903
 4.6148    811
 4.6198    804
 4.6248    727
 4.6298    681
 4.6348    681
 4.6398    665
 4.6448    651
 4.6498    639
 4.6548    594
 4.6598    601
 4.6648    591
 4.6698    587
 4.6748    581
 4.6798    555
 4.6848    560
 4.6898    475
 4.6948    479
 4.6998    452
 4.7048    447
 4.7099    422
 4.7149    372
 4.7199    377
 4.7249    365
 4.7299    370
 4.7349    354
 4.7399    348
 4.7449    326
 4.7499    281
 4.7549    311
 4.7599    324
 4.7649    326
 4.7699    324
 4.7749    333
 4.7799    316
 4.7849    257
 4.7899    336
 4.7949    336
 4.7999    332
 4.8049    321
 4.8099    372
 4.8149    360
 4.8199    341
 4.8249    372
 4.8299    389
  4.835    432
   4.84    438
  4.845    425
   4.85    465
  4.855    464
   4.86    509
  4.865    526
   4.87    528
  4.875    545
   4.88    577
  4.885    604
   4.89    584
  4.895    635
    4.9    631
  4.905    669
   4.91    698
  4.915    705
   4.92    679
  4.925    693
   4.93    729
  4.935    671
   4.94    675
  4.945    618
   4.95    686
  4.955    617
 4.9601    704
 4.9651    608
 4.9701    554
 4.9751    587
 4.9801    537
 4.9851    573
 4.9901    499
 4.9951    475
 5.0001    421
 5.0051    391
 5.0101    420
 5.0151    393
 5.0201    401
 5.0251    321
 5.0301    322
 5.0351    303
 5.0401    297
 5.0451    279
 5.0501    258
 5.0551    258
 5.0601    260
 5.0651    262
 5.0701    230
 5.0751    242
 5.0801    267
 5.0852    211
 5.0902    224
 5.0952    228
 5.1002    244
 5.1052    230
 5.1102    233
 5.1152    200
 5.1202    229
 5.1252    220
 5.1302    244
 5.1352    250
 5.1402    228
 5.1452    255
 5.1502    267
 5.1552    235
 5.1602    237
 5.1652    241
 5.1702    253
 5.1752    230
 5.1802    215
 5.1852    230
 5.1902    239
 5.1952    229
 5.2002    214
 5.2052    232
 5.2103    236
 5.2153    232
 5.2203    246
 5.2253    252
 5.2303    228
 5.2353    251
 5.2403    256
 5.2453    278
 5.2503    238
 5.2553    215
 5.2603    248
 5.2653    256
 5.2703    252
 5.2753    258
 5.2803    271
 5.2853    242
 5.2903    278
 5.2953    268
 5.3003    247
 5.3053    271
 5.3103    293
 5.3153    289
 5.3203    285
 5.3253    303
 5.3303    298
 5.3354    278
 5.3404    276
 5.3454    318
 5.3504    321
 5.3554    300
 5.3604    310
 5.3654    290
 5.3704    335
 5.3754    341
 5.3804    356
 5.3854    326
 5.3904    325
 5.3954    359
 5.4004    333
 5.4054    372
 5.4104    374
 5.4154    369
 5.4204    335
 5.4254    324
 5.4304    350
 5.4354    323
 5.4404    343
 5.4454    331
 5.4504    357
 5.4554    330
 5.4605    301
 5.4655    341
 5.4705    285
 5.4755    319
 5.4805    306
 5.4855    303
 5.4905    305
 5.4955    296
 5.5005    287
 5.5055    269
 5.5105    279
 5.5155    263
 5.5205    246
 5.5255    260
 5.5305    267
 5.5355    256
 5.5405    210
 5.5455    233
 5.5505    228
 5.5555    229
 5.5605    233
 5.5655    245
 5.5705    216
 5.5755    253
 5.5805    230
 5.5856    218
 5.5906    245
 5.5956    213
 5.6006    248
 5.6056    239
 5.6106    203
 5.6156    235
 5.6206    240
 5.6256    217
 5.6306    214
 5.6356    212
 5.6406    234
 5.6456    248
 5.6506    243
 5.6556    216
 5.6606    234
 5.6656    203
 5.6706    215
 5.6756    219
 5.6806    221
 5.6856    219
 5.6906    210
 5.6956    232
 5.7006    259
 5.7056    228
 5.7107    202
 5.7157    258
 5.7207    240
 5.7257    254
 5.7307    261
 5.7357    267
 5.7407    279
 5.7457    323
 5.7507    355
 5.7557    360
 5.7607    401
 5.7657    451
 5.7707    453
 5.7757    548
 5.7807    550
 5.7857    642
 5.7907    683
 5.7957    739
 5.8007    851
 5.8057    990
 5.8107    998
 5.8157   1110
 5.8207   1274
 5.8257   1368
 5.8307   1512
 5.8358   1567
 5.8408   1769
 5.8458   1805
 5.8508   1969
 5.8558   2108
 5.8608   2186
 5.8658   2376
 5.8708   2364
 5.8758   2451
 5.8808   2520
 5.8858   2582
 5.8908   2641
 5.8958   2629
 5.9008   2623
 5.9058   2538
 5.9108   2489
 5.9158   2381
 5.9208   2390
 5.9258   2319
 5.9308   2295
 5.9358   2232
 5.9408   2104
 5.9458   1930
 5.9508   1837
 5.9558   1622
 5.9609   1568
 5.9659   1475
 5.9709   1312
 5.9759   1189
 5.9809   1070
 5.9859   1011
 5.9909    869
 5.9959    826
 6.0009    776
 6.0059    734
 6.0109    667
 6.0159    597
 6.0209    521
 6.0259    500
 6.0309    503
 6.0359    488
 6.0409    459
 6.0459    420
 6.0509    424
 6.0559    386
 6.0609    380
 6.0659    384
 6.0709    410
 6.0759    422
 6.0809    383
  6.086    407
  6.091    376
  6.096    369
  6.101    440
  6.106    423
  6.111    433
  6.116    456
  6.121    471
  6.126    442
  6.131    424
  6.136    467
  6.141    522
  6.146    527
  6.151    573
  6.156    557
  6.161    582
  6.166    583
  6.171    608
  6.176    653
  6.181    781
  6.186    769
  6.191    875
  6.196    955
  6.201    973
  6.206   1080
 6.2111   1242
 6.2161   1394
 6.2211   1610
 6.2261   1949
 6.2311   2270
 6.2361   2666
 6.2411   3088
 6.2461   3686
 6.2511   4219
 6.2561   5171
 6.2611   6044
 6.2661   7178
 6.2711   8366
 6.2761   9958
 6.2811  11627
 6.2861  13358
 6.2911  15760
 6.2961  18129
 6.3011  20464
 6.3061  23381
 6.3111  26450
 6.3161  29838
 6.3211  33230
 6.3261  37132
 6.3311  40941
 6.3362  44828
 6.3412  49004
 6.3462  52405
 6.3512  56620
 6.3562  60628
 6.3612  64051
 6.3662  67150
 6.3712  70193
 6.3762  72837
 6.3812  75145
 6.3862  76898
 6.3912  78364
 6.3962  78833
 6.4012  78577
 6.4062  78690
 6.4112  77039
 6.4162  76453
 6.4212  74112
 6.4262  71667
 6.4312  68848
 6.4362  66005
 6.4412  61801
 6.4462  58737
 6.4512  55075
 6.4562  50998
 6.4613  47019
 6.4663  42832
 6.4713  39259
 6.4763  35453
 6.4813  31543
 6.4863  28043
 6.4913  25333
 6.4963  21891
 6.5013  19102
 6.5063  16587
 6.5113  14287
 6.5163  12469
 6.5213  10465
 6.5263   8907
 6.5313   7627
 6.5363   6321
 6.5413   5379
 6.5463   4473
 6.5513   3667
 6.5563   3076
 6.5613   2509
 6.5663   2118
 6.5713   1716
 6.5763   1448
 6.5813   1151
 6.5864    984
 6.5914    810
 6.5964    652
 6.6014    604
 6.6064    516
 6.6114    428
 6.6164    388
 6.6214    369
 6.6264    340
 6.6314    303
 6.6364    295
 6.6414    286
 6.6464    291
 6.6514    269
 6.6564    238
 6.6614    271
 6.6664    255
 6.6714    279
 6.6764    240
 6.6814    269
 6.6864    222
 6.6914    237
 6.6964    225
 6.7014    227
 6.7064    249
 6.7115    240
 6.7165    217
 6.7215    209
 6.7265    263
 6.7315    240
 6.7365    246
 6.7415    220
 6.7465    256
 6.7515    249
 6.7565    235
 6.7615    295
 6.7665    237
 6.7715    274
 6.7765    261
 6.7815    304
 6.7865    270
 6.7915    292
 6.7965    325
 6.8015    308
 6.8065    341
 6.8115    364
 6.8165    315
 6.8215    361
 6.8265    385
 6.8315    370
 6.8366    426
 6.8416    414
 6.8466    462
 6.8516    476
 6.8566    523
 6.8616    493
 6.8666    574
 6.8716    680
 6.8766    682
 6.8816    701
 6.8866    819
 6.8916    865
 6.8966    950
 6.9016   1042
 6.9066   1156
 6.9116   1391
 6.9166   1502
 6.9216   1681
 6.9266   1833
 6.9316   2174
 6.9366   2451
 6.9416   2755
 6.9466   2929
 6.9516   3495
 6.9566   3715
 6.9617   4354
 6.9667   4650
 6.9717   5080
 6.9767   5697
 6.9817   5983
 6.9867   6551
 6.9917   7072
 6.9967   7629
 7.0017   8210
 7.0067   8606
 7.0117   9212
 7.0167   9664
 7.0217  10174
 7.0267  10504
 7.0317  10855
 7.0367  10861
 7.0417  11276
 7.0467  11419
 7.0517  11579
 7.0567  11589
 7.0617  11575
 7.0667  11415
 7.0717  11276
 7.0767  10920
 7.0817  10527
 7.0868  10145
 7.0918   9988
 7.0968   9385
 7.1018   8805
 7.1068   8387
 7.1118   7879
 7.1168   7176
 7.1218   6817
 7.1268   6281
 7.1318   5600
 7.1368   5177
 7.1418   4678
 7.1468   4063
 7.1518   3718
 7.1568   3294
 7.1618   2946
 7.1668   2564
 7.1718   2324
 7.1768   1935
 7.1818   1764
 7.1868   1421
 7.1918   1289
 7.1968   1052
 7.2018    890
 7.2068    809
 7.2119    666
 7.2169    568
 7.2219    501
 7.2269    389
 7.2319    318
 7.2369    326
 7.2419    249
 7.2469    234
 7.2519    201
 7.2569    181
 7.2619    143
 7.2669    133
 7.2719    115
 7.2769    122
 7.2819    125
 7.2869     99
 7.2919     94
 7.2969     98
 7.3019     74
 7.3069     89
 7.3119     92
 7.3169     93
 7.3219     81
 7.3269     85
 7.3319     92
  7.337    102
  7.342    104
  7.347     94
  7.352     98
  7.357    144
  7.362    117
  7.367    153
  7.372    148
  7.377    162
  7.382    182
  7.387    165
  7.392    166
  7.397    207
  7.402    193
  7.407    221
  7.412    267
  7.417    240
  7.422    292
  7.427    279
  7.432    276
  7.437    286
  7.442    293
  7.447    317
  7.452    322
  7.457    281
 7.4621    321
 7.4671    319
 7.4721    297
 7.4771    345
 7.4821    300
 7.4871    284
 7.4921    308
 7.4971    308
 7.5021    283
 7.5071    276
 7.5121    290
 7.5171    279
 7.5221    250
 7.5271    225
 7.5321    217
 7.5371    216
 7.5421    168
 7.5471    201
 7.5521    154
 7.5571    170
 7.5621    145
 7.5671    143
 7.5721    157
 7.5771     99
 7.5821    107
 7.5872    104
 7.5922    102
 7.5972     99
 7.6022    110
 7.6072     89
 7.6122     66
 7.6172     77
 7.6222     75
 7.6272     67
 7.6322     75
 7.6372     59
 7.6422     62
 7.6472     58
 7.6522     93
 7.6572     73
 7.6622     60
 7.6672     60
 7.6722     74
 7.6772     64
 7.6822     62
 7.6872     59
 7.6922     64
 7.6972     73
 7.7022     62
 7.7072     62
 7.7123     57
 7.7173     55
 7.7223     49
 7.7273     57
 7.7323     47
 7.7373     59
 7.7423     61
 7.7473     66
 7.7523     68
 7.7573     66
 7.7623     65
 7.7673     61
 7.7723     70
 7.7773     58
 7.7823     61
 7.7873     51
 7.7923     69
 7.7973     79
 7.8023     89
 7.8073     75
 7.8123     77
 7.8173     79
 7.8223     69
 7.8273     93
 7.8323     84
 7.8374     96
 7.8424     78
 7.8474    114
 7.8524    111
 7.8574    108
 7.8624    115
 7.8674    106
 7.8724    118
 7.8774    125
 7.8824    123
 7.8874    119
 7.8924    137
 7.8974    141
 7.9024    121
 7.9074    125
 7.9124    145
 7.9174    139
 7.9224    122
 7.9274    142
 7.9324    155
 7.9374    143
 7.9424    156
 7.9474    141
 7.9524    163
 7.9574    156
 7.9625    157
 7.9675    185
 7.9725    181
 7.9775    165
 7.9825    173
 7.9875    179
 7.9925    182
 7.9975    187
 8.0025    188
 8.0075    193
 8.0125    216
 8.0175    207
 8.0225    221
 8.0275    217
 8.0325    215
 8.0375    199
 8.0425    222
 8.0475    245
 8.0525    197
 8.0575    192
 8.0625    195
 8.0675    209
 8.0725    203
 8.0775    184
 8.0825    201
 8.0876    176
 8.0926    175
 8.0976    152
 8.1026    137
 8.1076    142
 8.1126    151
 8.1176    145
 8.1226    134
 8.1276    115
 8.1326    126
 8.1376    110
 8.1426    125
 8.1476    105
 8.1526     84
 8.1576     82
 8.1626     88
 8.1676     89
 8.1726     86
 8.1776     96
 8.1826     87
 8.1876    103
 8.1926     88
 8.1976    103
 8.2026     89
 8.2076     86
 8.2127     83
 8.2177     75
 8.2227     93
 8.2277     83
 8.2327     96
 8.2377    114
 8.2427     79
 8.2477     81
 8.2527     85
 8.2577     93
 8.2627     89
 8.2677     92
 8.2727     80
 8.2777     75
 8.2827     84
 8.2877     76
 8.2927    100
 8.2977    101
 8.3027     97
 8.3077     93
 8.3127     80
 8.3177     81
 8.3227     81
 8.3277     78
 8.3327     75
 8.3378     79
 8.3428     75
 8.3478     65
 8.3528     81
 8.3578     73
 8.3628     76
 8.3678     77
 8.3728     77
 8.3778     68
 8.3828     67
 8.3878     76
 8.3928     79
 8.3978     77
 8.4028     92
 8.4078     80
 8.4128     86
 8.4178     95
 8.4228     90
 8.4278    117
 8.4328     79
 8.4378    124
 8.4428    110
 8.4478    125
 8.4528    143
 8.4578    151
 8.4629    151
 8.4679    187
 8.4729    231
 8.4779    243
 8.4829    271
 8.4879    325
 8.4929    356
 8.4979    383
 8.5029    451
 8.5079    514
 8.5129    550
 8.5179    629
 8.5229    675
 8.5279    743
 8.5329    831
 8.5379    928
 8.5429   1031
 8.5479   1048
 8.5529   1196
 8.5579   1323
 8.5629   1403
 8.5679   1485
 8.5729   1584
 8.5779   1712
 8.5829   1760
  8.588   1867
  8.593   2049
  8.598   1978
  8.603   2066
  8.608   2167
  8.613   2245
  8.618   2225
  8.623   2233
  8.628   2211
  8.633   2208
  8.638   2230
  8.643   2270
  8.648   2200
  8.653   2135
  8.658   2021
  8.663   1966
  8.668   1971
  8.673   1812
  8.678   1713
  8.683   1617
  8.688   1584
  8.693   1428
  8.698   1370
  8.703   1261
  8.708   1130
 8.7131   1092
 8.7181   1000
 8.7231    946
 8.7281    811
 8.7331    751
 8.7381    641
 8.7431    602
 8.7481    537
 8.7531    486
 8.7581    428
 8.7631    360
 8.7681    354
 8.7731    310
 8.7781    217
 8.7831    224
 8.7881    225
 8.7931    182
 8.7981    171
 8.8031    167
 8.8081    129
 8.8131    116
 8.8181    123
 8.8231    122
 8.8281     78
 8.8331    104
 8.8382     92
 8.8432     91
 8.8482     91
 8.8532     97
 8.8582     90
 8.8632    101
 8.8682     88
 8.8732     96
 8.8782    103
 8.8832     95
 8.8882    101
 8.8932    120
 8.8982    125
 8.9032    102
 8.9082    116
 8.9132    102
 8.9182    120
 8.9232     99
 8.9282    119
 8.9332    111
 8.9382    113
 8.9432    118
 8.9482    121
 8.9532    109
 8.9582    102
 8.9633    113
 8.9683    136
 8.9733    121
 8.9783    141
 8.9833    115
 8.9883    148
 8.9933    124
 8.9983    132
 9.0033    172
 9.0083    156
 9.0133    152
 9.0183    136
 9.0233    170
 9.0283    156
 9.0333    199
 9.0383    191
 9.0433    180
 9.0483    217
 9.0533    248
 9.0583    273
 9.0633    308
 9.0683    352
 9.0733    407
 9.0783    427
 9.0833    461
 9.0884    524
 9.0934    626
 9.0984    721
 9.1034    773
 9.1084    877
 9.1134    935
 9.1184   1101
 9.1234   1256
 9.1284   1361
 9.1334   1528
 9.1384   1626
 9.1434   1855
 9.1484   1983
 9.1534   2118
 9.1584   2334
 9.1634   2545
 9.1684   2656
 9.1734   3018
 9.1784   3160
 9.1834   3202
 9.1884   3460
 9.1934   3614
 9.1984   3717
 9.2034   3980
 9.2084   4032
 9.2135   4267
 9.2185   4388
 9.2235   4496
 9.2285   4289
 9.2335   4539
 9.2385   4485
 9.2435   4618
 9.2485   4437
 9.2535   4360
 9.2585   4454
 9.2635   4256
 9.2685   4217
 9.2735   4017
 9.2785   3925
 9.2835   3809
 9.2885   3528
 9.2935   3385
 9.2985   3177
 9.3035   3050
 9.3085   2787
 9.3135   2686
 9.3185   2529
 9.3235   2277
 9.3285   2083
 9.3335   1938
 9.3386   1765
 9.3436   1670
 9.3486   1364
 9.3536   1263
 9.3586   1124
 9.3636   1015
 9.3686    928
 9.3736    782
 9.3786    714
 9.3836    625
 9.3886    594
 9.3936    499
 9.3986    426
 9.4036    368
 9.4086    343
 9.4136    329
 9.4186    278
 9.4236    250
 9.4286    236
 9.4336    239
 9.4386    197
 9.4436    208
 9.4486    199
 9.4536    186
 9.4586    173
 9.4637    197
 9.4687    206
 9.4737    218
 9.4787    211
 9.4837    203
 9.4887    228
 9.4937    236
 9.4987    235
 9.5037    254
 9.5087    261
 9.5137    286
 9.5187    273
 9.5237    311
 9.5287    318
 9.5337    340
 9.5387    356
 9.5437    354
 9.5487    370
 9.5537    350
 9.5587    354
 9.5637    349
 9.5687    322
 9.5737    342
 9.5787    338
 9.5837    347
 9.5888    348
 9.5938    325
 9.5988    306
 9.6038    310
 9.6088    325
 9.6138    300
 9.6188    306
 9.6238    252
 9.6288    274
 9.6338    262
 9.6388    242
 9.6438    219
 9.6488    216
 9.6538    215
 9.6588    192
 9.6638    194
 9.6688    141
 9.6738    153
 9.6788    169
 9.6838    131
 9.6888    103
 9.6938     88
 9.6988    100
 9.7038     98
 9.7088     91
 9.7139     89
 9.7189     83
 9.7239     70
 9.7289     62
 9.7339     67
 9.7389     66
 9.7439     68
 9.7489     76
 9.7539     65
 9.7589     54
 9.7639     55
 9.7689     47
 9.7739     60
 9.7789     45
 9.7839     68
 9.7889     53
 9.7939     76
 9.7989     57
 9.8039     51
 9.8089     67
 9.8139     65
 9.8189     68
 9.8239     61
 9.8289     52
 9.8339     73
  9.839     57
  9.844     75
  9.849     77
  9.854     62
  9.859     74
  9.864     68
  9.869     64
  9.874     74
  9.879     63
  9.884     60
  9.889     57
  9.894     51
  9.899     83
  9.904     63
  9.909     62
  9.914     75
  9.919     58
  9.924     73
  9.929     68
  9.934     70
  9.939     79
  9.944     75
  9.949     69
  9.954     75
  9.959     71
 9.9641     64
 9.9691     59
 9.9741     77
 9.9791     84
 9.9841     77
 9.9891     68
 9.9941     90
 9.9991     68
10.0041     89
10.0091     91
10.0141     89
10.0191     90
10.0241     93
10.0291     94
10.0341     87
10.0391     91
10.0441    106
10.0491    112
10.0541    114
10.0591    100
10.0641     87
10.0691    107
10.0741    129
10.0791    101
10.0841    129
10.0892    135
10.0942    135
10.0992    142
10.1042    153
10.1092    159
10.1142    171
10.1192    169
10.1242    196
10.1292    207
10.1342    204
10.1392    224
10.1442    263
10.1492    290
10.1542    276
10.1592    312
10.1642    352
10.1692    342
10.1742    387
10.1792    385
10.1842    406
10.1892    441
10.1942    464
10.1992    551
10.2042    555
10.2092    578
10.2143    591
10.2193    565
10.2243    630
10.2293    615
10.2343    632
10.2393    676
10.2443    648
10.2493    713
10.2543    699
10.2593    673
10.2643    663
10.2693    654
10.2743    708
10.2793    607
10.2843    602
10.2893    623
10.2943    633
10.2993    578
10.3043    558
10.3093    561
10.3143    535
10.3193    531
10.3243    470
10.3293    481
10.3343    443
10.3394    393
10.3444    435
10.3494    364
10.3544    334
10.3594    313
10.3644    297
10.3694    288
10.3744    260
10.3794    246
10.3844    257
10.3894    244
10.3944    247
10.3994    238
10.4044    226
10.4094    196
10.4144    224
10.4194    225
10.4244    200
10.4294    196
10.4344    215
10.4394    210
10.4444    202
10.4494    248
10.4544    267
10.4594    244
10.4645    258
10.4695    280
10.4745    265
10.4795    276
10.4845    316
10.4895    285
10.4945    292
10.4995    291
10.5045    302
10.5095    317
10.5145    308
10.5195    327
10.5245    314
10.5295    365
10.5345    317
10.5395    323
10.5445    344
10.5495    333
10.5545    319
10.5595    322
10.5645    309
10.5695    314
10.5745    278
10.5795    284
10.5845    267
10.5896    254
10.5946    286
10.5996    259
10.6046    256
10.6096    228
10.6146    189
10.6196    201
10.6246    217
10.6296    152
10.6346    148
10.6396    159
10.6446    149
10.6496    130
10.6546    124
10.6596    121
10.6646    106
10.6696     98
10.6746     77
10.6796     83
10.6846     79
10.6896     71
10.6946     66
10.6996     65
10.7046     70
10.7096     58
10.7147     62
10.7197     60
10.7247     62
10.7297     54
10.7347     54
10.7397     41
10.7447     53
10.7497     33
10.7547     50
10.7597     37
10.7647     56
10.7697     34
10.7747     48
10.7797     49
10.7847     50
10.7897     51
10.7947     38
10.7997     46
10.8047     50
10.8097     50
10.8147     47
10.8197     44
10.8247     46
10.8297     54
10.8347     47
10.8398     42
10.8448     40
10.8498     45
10.8548     44
10.8598     44
10.8648     45
10.8698     54
10.8748     49
10.8798     47
10.8848     44
10.8898     38
10.8948     47
10.8998     37
10.9048     54
10.9098     40
10.9148     53
10.9198     41
10.9248     43
10.9298     31
10.9348     44
10.9398     37
10.9448     50
10.9498     38
10.9548     38
10.9598     45
10.9649     40
10.9699     35
10.9749     43
10.9799     41
10.9849     45
10.9899     49
10.9949     40
10.9999     48
11.0049     42
11.0099     41
11.0149     42
11.0199     40
11.0249     34
11.0299     52
11.0349     29
11.0399     32
11.0449     45
11.0499     34
11.0549     41
11.0599     45
11.0649     34
11.0699     32
11.0749     40
11.0799     33
11.0849     52
  11.09     36
 11.095     44
   11.1     32
 11.105     32
  11.11     41
 11.115     37
  11.12     37
 11.125     51
  11.13     45
 11.135     31
  11.14     36
 11.145     44
  11.15     26
 11.155     32
  11.16     43
 11.165     37
  11.17     63
 11.175     51
  11.18     47
 11.185     39
  11.19     54
 11.195     46
   11.2     53
 11.205     56
  11.21     43
11.2151     52
11.2201     31
11.2251     48
11.2301     44
11.2351     53
11.2401     41
11.2451     39
11.2501     35
11.2551     52
11.2601     51
11.2651     41
11.2701     33
11.2751     52
11.2801     43
11.2851     52
11.2901     49
11.2951     39
11.3001     52
11.3051     40
11.3101     37
11.3151     51
11.3201     41
11.3251     41
11.3301     51
11.3351     32
11.3402     39
11.3452     43
11.3502     44
11.3552     62
11.3602     65
11.3652     37
11.3702     42
11.3752     36
11.3802     46
11.3852     46
11.3902     29
11.3952     54
11.4002     42
11.4052     41
11.4102     38
11.4152     39
11.4202     37
11.4252     37
11.4302     43
11.4352     41
11.4402     56
11.4452     37
11.4502     51
11.4552     46
11.4602     34
11.4653     41
11.4703     34
11.4753     41
11.4803     35
11.4853     46
11.4903     43
11.4953     41
11.5003     49
11.5053     36
11.5103     35
11.5153     45
11.5203     38
11.5253     42
11.5303     52
11.5353     30
11.5403     39
11.5453     47
11.5503     43
11.5553     37
11.5603     48
11.5653     53
11.5703     49
11.5753     58
11.5803     48
11.5853     34
11.5904     49
11.5954     38
11.6004     54
11.6054     55
11.6104     45
11.6154     52
11.6204     41
11.6254     45
11.6304     57
11.6354     62
11.6404     60
11.6454     53
11.6504     62
11.6554     60
11.6604     61
11.6654     73
11.6704     49
11.6754     55
11.6804     59
11.6854     60
11.6904     74
11.6954     70
11.7004     69
11.7054     71
11.7104     74
11.7155     53
11.7205     66
11.7255     59
11.7305     71
11.7355     58
11.7405     63
11.7455     50
11.7505     72
11.7555     76
11.7605     58
11.7655     83
11.7705     49
11.7755     74
11.7805     70
11.7855     63
11.7905     65
11.7955     53
11.8005     61
11.8055     70
11.8105     77
11.8155     71
11.8205     66
11.8255     71
11.8305     64
11.8355     65
11.8406     62
11.8456     67
11.8506     63
11.8556     70
11.8606     60
11.8656     54
11.8706     67
11.8756     65
11.8806     71
11.8856     60
11.8906     62
11.8956     55
11.9006     57
11.9056     64
11.9106     82
11.9156     70
11.9206     67
11.9256     71
11.9306     54
11.9356     62
11.9406     56
11.9456     65
11.9506     61
11.9556     55
11.9606     66
11.9657     65
11.9707     56
11.9757     52
11.9807     53
11.9857     58
11.9907     53
11.9957     54
12.0007     55
12.0057     45
12.0107     60
12.0157     50
12.0207     69
12.0257     55
12.0307     54
12.0357     47
12.0407     66
12.0457     39
12.0507     52
12.0557     62
12.0607     54
12.0657     50
12.0707     47
12.0757     58
12.0807     35
12.0857     51
12.0908     60
12.0958     47
12.1008     54
12.1058     52
12.1108     51
12.1158     49
12.1208     59
12.1258     58
12.1308     44
12.1358     59
12.1408     58
12.1458     58
12.1508     58
12.1558     56
12.1608     56
12.1658     54
12.1708     64
12.1758     53
12.1808     60
12.1858     63
12.1908     55
12.1958     67
12.2008     57
12.2058     57
12.2108     56
12.2159     62
12.2209     64
12.2259     55
12.2309     56
12.2359     55
12.2409     71
12.2459     59
12.2509     57
12.2559     49
12.2609     65
12.2659     59
12.2709     61
12.2759     78
12.2809     72
12.2859     66
12.2909     79
12.2959     77
12.3009     59
12.3059     66
12.3109     71
12.3159     66
12.3209     63
12.3259     76
12.3309     65
12.3359     70
 12.341     65
 12.346     54
 12.351     80
 12.356     72
 12.361     74
 12.366     73
 12.371     72
 12.376     86
 12.381     66
 12.386     72
 12.391     71
 12.396     66
 12.401     72
 12.406     83
 12.411     65
 12.416     73
 12.421     91
 12.426     73
 12.431     72
 12.436     81
 12.441     83
 12.446     84
 12.451     78
 12.456     87
 12.461     96
12.4661    100
12.4711     88
12.4761    106
12.4811    102
12.4861    100
12.4911    120
12.4961    128
12.5011    109
12.5061    103
12.5111    109
12.5161    124
12.5211    124
12.5261    126
12.5311    157
12.5361    151
12.5411    167
12.5461    163
12.5511    152
12.5561    172
12.5611    152
12.5661    151
12.5711    199
12.5761    150
12.5811    175
12.5861    182
12.5912    186
12.5962    192
12.6012    187
12.6062    193
12.6112    174
12.6162    189
12.6212    175
12.6262    186
12.6312    198
12.6362    196
12.6412    179
12.6462    173
12.6512    187
12.6562    162
12.6612    166
12.6662    190
12.6712    168
12.6762    145
12.6812    157
12.6862    164
12.6912    165
12.6962    166
12.7012    156
12.7062    146
12.7112    143
12.7163    154
12.7213    144
12.7263    130
12.7313    151
12.7363    138
12.7413    138
12.7463    136
12.7513    117
12.7563    137
12.7613    109
12.7663    126
12.7713    123
12.7763    119
12.7813    100
12.7863    132
12.7913    105
12.7963    107
12.8013    104
12.8063    114
12.8113     99
12.8163    108
12.8213    125
12.8263    120
12.8313    113
12.8363    120
12.8414    127
12.8464    113
12.8514    128
12.8564    135
12.8614    111
12.8664    116
12.8714     89
12.8764    121
12.8814    110
12.8864    122
12.8914    117
12.8964    106
12.9014    108
12.9064    106
12.9114    108
12.9164    122
12.9214    120
12.9264    128
12.9314    132
12.9364    102
12.9414    130
12.9464    137
12.9514    109
12.9564    122
12.9614    116
12.9665    131
12.9715    125
12.9765    115
12.9815    111
12.9865    125
12.9915    117
12.9965    119
13.0015    113
13.0065    116
13.0115    130
13.0165    105
13.0215    114
13.0265    121
13.0315    120
13.0365    127
13.0415    114
13.0465    117
13.0515    107
13.0565    117
13.0615    143
13.0665    122
13.0715     92
13.0765    104
13.0815    104
13.0865    112
13.0916    109
13.0966    110
13.1016    108
13.1066    119
13.1116    108
13.1166    113
13.1216    119
13.1266    113
13.1316    107
13.1366    127
13.1416    140
13.1466    136
13.1516    140
13.1566    121
13.1616    126
13.1666    136
13.1716    178
13.1766    177
13.1816    168
13.1866    161
13.1916    167
13.1966    205
13.2016    242
13.2066    244
13.2116    258
13.2167    232
13.2217    283
13.2267    292
13.2317    311
13.2367    347
13.2417    346
13.2467    365
13.2517    378
13.2567    351
13.2617    442
13.2667    479
13.2717    465
13.2767    466
13.2817    499
13.2867    547
13.2917    563
13.2967    608
13.3017    568
13.3067    621
13.3117    670
13.3167    657
13.3217    674
13.3267    703
13.3317    709
13.3367    745
13.3418    727
13.3468    747
13.3518    754
13.3568    761
13.3618    746
13.3668    755
13.3718    779
13.3768    713
13.3818    747
13.3868    730
13.3918    737
13.3968    734
13.4018    716
13.4068    701
13.4118    712
13.4168    726
13.4218    640
13.4268    646
13.4318    622
13.4368    570
13.4418    549
13.4468    554
13.4518    508
13.4568    547
13.4618    490
13.4669    446
13.4719    491
13.4769    384
13.4819    440
13.4869    418
13.4919    351
13.4969    344
13.5019    350
13.5069    336
13.5119    326
13.5169    297
13.5219    269
13.5269    257
13.5319    235
13.5369    264
13.5419    242
13.5469    237
13.5519    235
13.5569    232
13.5619    212
13.5669    208
13.5719    205
13.5769    211
13.5819    197
13.5869    193
 13.592    183
 13.597    192
 13.602    186
 13.607    197
 13.612    153
 13.617    187
 13.622    212
 13.627    179
 13.632    143
 13.637    179
 13.642    174
 13.647    168
 13.652    178
 13.657    155
 13.662    155
 13.667    175
 13.672    171
 13.677    179
 13.682    200
 13.687    172
 13.692    186
 13.697    168
 13.702    156
 13.707    187
 13.712    175
13.7171    158
13.7221    172
13.7271    169
13.7321    185
13.7371    183
13.7421    177
13.7471    187
13.7521    181
13.7571    185
13.7621    187
13.7671    178
13.7721    175
13.7771    177
13.7821    162
13.7871    171
13.7921    177
13.7971    191
13.8021    205
13.8071    166
13.8121    182
13.8171    183
13.8221    211
13.8271    194
13.8321    221
13.8371    220
13.8422    211
13.8472    215
13.8522    239
13.8572    225
13.8622    258
13.8672    294
13.8722    283
13.8772    323
13.8822    368
13.8872    357
13.8922    390
13.8972    434
13.9022    440
13.9072    484
13.9122    498
13.9172    571
13.9222    652
13.9272    642
13.9322    713
13.9372    818
13.9422    860
13.9472    902
13.9522    983
13.9572   1077
13.9622   1288
13.9673   1312
13.9723   1475
13.9773   1558
13.9823   1764
13.9873   1873
13.9923   2019
13.9973   2185
14.0023   2415
14.0073   2541
14.0123   2669
14.0173   2908
14.0223   3125
14.0273   3366
14.0323   3610
14.0373   3759
14.0423   3963
14.0473   4198
14.0523   4365
14.0573   4470
14.0623   4664
14.0673   5035
14.0723   5052
14.0773   5314
14.0823   5593
14.0873   5691
14.0924   5827
14.0974   5899
14.1024   6202
14.1074   6192
14.1124   6239
14.1174   6424
14.1224   6359
14.1274   6556
14.1324   6535
14.1374   6725
14.1424   6423
14.1474   6514
14.1524   6340
14.1574   6436
14.1624   6164
14.1674   6001
14.1724   6111
14.1774   6008
14.1824   5625
14.1874   5530
14.1924   5446
14.1974   5414
14.2024   4964
14.2074   4646
14.2124   4522
14.2175   4333
14.2225   4170
14.2275   3830
14.2325   3679
14.2375   3466
14.2425   3299
14.2475   3113
14.2525   2837
14.2575   2594
14.2625   2489
14.2675   2275
14.2725   2118
14.2775   1958
14.2825   1739
14.2875   1665
14.2925   1507
14.2975   1398
14.3025   1258
14.3075   1167
14.3125   1075
14.3175    959
14.3225    991
14.3275    772
14.3325    775
14.3375    674
14.3426    610
14.3476    616
14.3526    524
14.3576    502
14.3626    454
14.3676    408
14.3726    424
14.3776    438
14.3826    368
14.3876    370
14.3926    337
14.3976    334
14.4026    309
14.4076    306
14.4126    290
14.4176    304
14.4226    293
14.4276    285
14.4326    277
14.4376    272
14.4426    274
14.4476    271
14.4526    280
14.4576    294
14.4626    267
14.4677    278
14.4727    278
14.4777    276
14.4827    283
14.4877    283
14.4927    279
14.4977    275
14.5027    285
14.5077    286
14.5127    296
14.5177    274
14.5227    274
14.5277    276
14.5327    301
14.5377    304
14.5427    293
14.5477    305
14.5527    312
14.5577    293
14.5627    324
14.5677    277
14.5727    323
14.5777    306
14.5827    353
14.5877    304
14.5928    328
14.5978    319
14.6028    321
14.6078    332
14.6128    317
14.6178    339
14.6228    334
14.6278    342
14.6328    356
14.6378    327
14.6428    364
14.6478    341
14.6528    376
14.6578    332
14.6628    339
14.6678    351
14.6728    332
14.6778    375
14.6828    394
14.6878    407
14.6928    404
14.6978    405
14.7028    401
14.7078    419
14.7128    405
14.7179    417
14.7229    416
14.7279    444
14.7329    414
14.7379    459
14.7429    415
14.7479    506
14.7529    524
14.7579    523
14.7629    488
14.7679    493
14.7729    531
14.7779    485
14.7829    508
14.7879    543
14.7929    553
14.7979    584
14.8029    594
14.8079    608
14.8129    617
14.8179    628
14.8229    678
14.8279    675
14.8329    712
14.8379    683
 14.843    707
 14.848    720
 14.853    748
 14.858    751
 14.863    743
 14.868    739
 14.873    791
 14.878    812
 14.883    813
 14.888    851
 14.893    862
 14.898    860
 14.903    876
 14.908    815
 14.913    893
 14.918    888
 14.923    925
 14.928    909
 14.933    856
 14.938    966
 14.943    881
 14.948    913
 14.953    928
 14.958    941
 14.963    973
14.9681    914
14.9731    874
14.9781    894
14.9831    916
14.9881    888
14.9931    839
14.9981    882
15.0031    855
15.0081    858
15.0131    859
15.0181    814
15.0231    849
15.0281    816
15.0331    765
15.0381    798
15.0431    760
15.0481    769
15.0531    835
15.0581    799
15.0631    728
15.0681    722
15.0731    747
15.0781    728
15.0831    745
15.0881    762
15.0932    757
15.0982    734
15.1032    808
15.1082    752
15.1132    705
15.1182    716
15.1232    723
15.1282    696
15.1332    738
15.1382    766
15.1432    733
15.1482    746
15.1532    718
15.1582    721
15.1632    783
15.1682    730
15.1732    777
15.1782    775
15.1832    807
15.1882    753
15.1932    792
15.1982    791
15.2032    767
15.2082    774
15.2132    819
15.2183    797
15.2233    795
15.2283    811
15.2333    794
15.2383    826
15.2433    848
15.2483    833
15.2533    881
15.2583    847
15.2633    885
15.2683    851
15.2733    886
15.2783    876
15.2833    940
15.2883    977
15.2933    857
15.2983    859
15.3033    984
15.3083    894
15.3133    908
15.3183    903
15.3233   1006
15.3283    971
15.3333    993
15.3383    937
15.3434    980
15.3484    994
15.3534    935
15.3584   1009
15.3634   1021
15.3684   1037
15.3734   1042
15.3784   1055
15.3834   1008
15.3884   1018
15.3934   1098
15.3984   1106
15.4034   1064
15.4084   1031
15.4134   1107
15.4184   1116
15.4234   1090
15.4284   1151
15.4334   1171
15.4384   1168
15.4434   1228
15.4484   1169
15.4534   1177
15.4584   1214
15.4634   1172
15.4685   1220
15.4735   1208
15.4785   1315
15.4835   1251
15.4885   1269
15.4935   1224
15.4985   1358
15.5035   1293
15.5085   1326
15.5135   1362
15.5185   1426
15.5235   1362
15.5285   1370
15.5335   1423
15.5385   1420
15.5435   1494
15.5485   1414
15.5535   1480
15.5585   1498
15.5635   1480
15.5685   1515
15.5735   1634
15.5785   1590
15.5835   1634
15.5885   1669
15.5936   1620
15.5986   1719
15.6036   1709
15.6086   1808
15.6136   1704
15.6186   1786
15.6236   1825
15.6286   1852
15.6336   1892
15.6386   1853
15.6436   1951
15.6486   1978
15.6536   2073
15.6586   2070
15.6636   2159
15.6686   2144
15.6736   2201
15.6786   2201
15.6836   2252
15.6886   2260
15.6936   2394
15.6986   2361
15.7036   2425
15.7086   2534
15.7136   2503
15.7187   2656
15.7237   2652
15.7287   2733
15.7337   2803
15.7387   2861
15.7437   2909
15.7487   2843
15.7537   2974
15.7587   3008
15.7637   3119
15.7687   3263
15.7737   3167
15.7787   3244
15.7837   3192
15.7887   3212
15.7937   3227
15.7987   3324
15.8037   3274
15.8087   3442
15.8137   3436
15.8187   3491
15.8237   3483
15.8287   3496
15.8337   3509
15.8387   3569
15.8438   3603
15.8488   3539
15.8538   3582
15.8588   3410
15.8638   3556
15.8688   3612
15.8738   3681
15.8788   3587
15.8838   3666
15.8888   3743
15.8938   3606
15.8988   3665
15.9038   3633
15.9088   3595
15.9138   3619
15.9188   3693
15.9238   3657
15.9288   3688
15.9338   3710
15.9388   3683
15.9438   3724
15.9488   3797
15.9538   3745
15.9588   3857
15.9638   3761
15.9689   3874
15.9739   3876
15.9789   3914
15.9839   3948
15.9889   4009
15.9939   4001
15.9989   4083
16.0039   4130
16.0089   4210
16.0139   4253
16.0189   4284
16.0239   4467
16.0289   4574
16.0339   4496
16.0389   4444
16.0439   4661
16.0489   4735
16.0539   4819
16.0589   4912
16.0639   4846
16.0689   5118
16.0739   5222
16.0789   5154
16.0839   5388
16.0889   5388
 16.094   5448
 16.099   5607
 16.104   5846
 16.109   5824
 16.114   5811
 16.119   6019
 16.124   6037
 16.129   6115
 16.134   6317
 16.139   6436
 16.144   6454
 16.149   6524
 16.154   6934
 16.159   7044
 16.164   7106
 16.169   7141
 16.174   7439
 16.179   7522
 16.184   7691
 16.189   7825
 16.194   7948
 16.199   8005
 16.204   8241
 16.209   8446
 16.214   8833
16.2191   8773
16.2241   8854
16.2291   9056
16.2341   9260
16.2391   9441
16.2441   9844
16.2491   9920
16.2541  10078
16.2591  10211
16.2641  10446
16.2691  10378
16.2741  10812
16.2791  10932
16.2841  11341
16.2891  11415
16.2941  11788
16.2991  11942
16.3041  12065
16.3091  12413
16.3141  12529
16.3191  12735
16.3241  13070
16.3291  13286
16.3341  13698
16.3391  13657
16.3442  13882
16.3492  14324
16.3542  14554
16.3592  14616
16.3642  14844
16.3692  15189
16.3742  15532
16.3792  15916
16.3842  16031
16.3892  16192
16.3942  16474
16.3992  16902
16.4042  17112
16.4092  17355
16.4142  17462
16.4192  17832
16.4242  18004
16.4292  18339
16.4342  18523
16.4392  19101
16.4442  19177
16.4492  19479
16.4542  19726
16.4592  19571
16.4642  19859
16.4693  20136
16.4743  20631
16.4793  20706
16.4843  21128
16.4893  21302
16.4943  21527
16.4993  21710
16.5043  22056
16.5093  22135
16.5143  22299
16.5193  22555
16.5243  22327
16.5293  23086
16.5343  23441
16.5393  23306
16.5443  23878
16.5493  23880
16.5543  24059
16.5593  24224
16.5643  24406
16.5693  24337
16.5743  24576
16.5793  24692
16.5843  25203
16.5893  25295
16.5944  25127
16.5994  25665
16.6044  25770
16.6094  26326
16.6144  26038
16.6194  26315
16.6244  26450
16.6294  26517
16.6344  26405
16.6394  26549
16.6444  26393
16.6494  26786
16.6544  26993
16.6594  26991
16.6644  26936
16.6694  27021
16.6744  27097
16.6794  27327
16.6844  27649
16.6894  27460
16.6944  27488
16.6994  27768
16.7044  27381
16.7094  27609
16.7144  27652
16.7195  28019
16.7245  27905
16.7295  27873
16.7345  27674
16.7395  27883
16.7445  27688
16.7495  27928
16.7545  28034
16.7595  27497
16.7645  27848
16.7695  27689
16.7745  27902
16.7795  27653
16.7845  27670
16.7895  27776
16.7945  27601
16.7995  27631
16.8045  27519
16.8095  27323
16.8145  27207
16.8195  27359
16.8245  27206
16.8295  27231
16.8345  26950
16.8395  27062
16.8446  26724
16.8496  27185
16.8546  26237
16.8596  26571
16.8646  26362
16.8696  26291
16.8746  26389
16.8796  26325
16.8846  26052
16.8896  26176
16.8946  25895
16.8996  25813
16.9046  25671
16.9096  25331
16.9146  25601
16.9196  25028
16.9246  24912
16.9296  24937
16.9346  24635
16.9396  24596
16.9446  24258
16.9496  24137
16.9546  24114
16.9596  23780
16.9646  23573
16.9697  23760
16.9747  23467
16.9797  23239
16.9847  23148
16.9897  22739
16.9947  22693
16.9997  22527
17.0047  22389
17.0097  22065
17.0147  21831
17.0197  21759
17.0247  21486
17.0297  21291
17.0347  21022
17.0397  21058
17.0447  20716
17.0497  20390
17.0547  20333
17.0597  19965
17.0647  19591
17.0697  19529
17.0747  19563
17.0797  19192
17.0847  18921
17.0897  18730
17.0948  18412
17.0998  18137
17.1048  18339
17.1098  17876
17.1148  17352
17.1198  17438
17.1248  17048
17.1298  16927
17.1348  16817
17.1398  16743
17.1448  16748
17.1498  16431
17.1548  16383
17.1598  16134
17.1648  16096
17.1698  15974
17.1748  16036
17.1798  15777
17.1848  15796
17.1898  15714
17.1948  15583
17.1998  15787
17.2048  15630
17.2098  15837
17.2148  15946
17.2199  15782
17.2249  16152
17.2299  16263
17.2349  16445
17.2399  16906
17.2449  17054
17.2499  17185
17.2549  17535
17.2599  18258
17.2649  18505
17.2699  18905
17.2749  19210
17.2799  19700
17.2849  20236
17.2899  20916
17.2949  21555
17.2999  21903
17.3049  22452
17.3099  23263
17.3149  23669
17.3199  24410
17.3249  25112
17.3299  25657
17.3349  26250
17.3399  26669
 17.345  27531
  17.35  28627
 17.355  28906
  17.36  29398
 17.365  30127
  17.37  30623
 17.375  31379
  17.38  31206
 17.385  32117
  17.39  32604
 17.395  33058
   17.4  33357
 17.405  33734
  17.41  34129
 17.415  34162
  17.42  34175
 17.425  34251
  17.43  34408
 17.435  34443
  17.44  33928
 17.445  33788
  17.45  33581
 17.455  33251
  17.46  32986
 17.465  32687
17.4701  32074
17.4751  31273
17.4801  31088
17.4851  30079
17.4901  29672
17.4951  28832
17.5001  27901
17.5051  27045
17.5101  26352
17.5151  25831
17.5201  24403
17.5251  23530
17.5301  22331
17.5351  21442
17.5401  20565
17.5451  19622
17.5501  18588
17.5551  17502
17.5601  16664
17.5651  15946
17.5701  14793
17.5751  14185
17.5801  13024
17.5851  12201
17.5901  11678
17.5952  10808
17.6002   9831
17.6052   9258
17.6102   8621
17.6152   8029
17.6202   7484
17.6252   6906
17.6302   6442
17.6352   5753
17.6402   5411
17.6452   5033
17.6502   4793
17.6552   4233
17.6602   3970
17.6652   3674
17.6702   3297
17.6752   3086
17.6802   2866
17.6852   2720
17.6902   2447
17.6952   2418
17.7002   2222
17.7052   2061
17.7102   2011
17.7152   1824
17.7203   1691
17.7253   1626
17.7303   1519
17.7353   1519
17.7403   1431
17.7453   1351
17.7503   1415
17.7553   1273
17.7603   1252
17.7653   1163
17.7703   1138
17.7753   1106
17.7803   1094
17.7853   1027
17.7903   1036
17.7953   1056
17.8003   1015
17.8053    981
17.8103   1005
17.8153    948
17.8203    889
17.8253    908
17.8303    869
17.8353    900
17.8403    829
17.8454    864
17.8504    837
17.8554    787
17.8604    807
17.8654    755
17.8704    811
17.8754    772
17.8804    744
17.8854    758
17.8904    727
17.8954    687
17.9004    776
17.9054    699
17.9104    661
17.9154    698
17.9204    619
17.9254    643
17.9304    678
17.9354    636
17.9404    629
17.9454    641
17.9504    615
17.9554    596
17.9604    595
17.9654    577
17.9705    592
17.9755    513
17.9805    552
17.9855    517
17.9905    511
17.9955    487
18.0005    477
18.0055    533
18.0105    485
18.0155    455
18.0205    501
18.0255    456
18.0305    485
18.0355    477
18.0405    464
18.0455    413
18.0505    398
18.0555    440
18.0605    424
18.0655    401
18.0705    407
18.0755    386
18.0805    401
18.0855    379
18.0905    433
18.0956    330
18.1006    360
18.1056    355
18.1106    367
18.1156    378
18.1206    343
18.1256    334
18.1306    346
18.1356    320
18.1406    280
18.1456    310
18.1506    303
18.1556    309
18.1606    262
18.1656    277
18.1706    295
18.1756    291
18.1806    266
18.1856    269
18.1906    251
18.1956    260
18.2006    281
18.2056    244
18.2106    241
18.2156    234
18.2207    223
18.2257    232
18.2307    202
18.2357    230
18.2407    248
18.2457    242
18.2507    219
18.2557    199
18.2607    215
18.2657    198
18.2707    205
18.2757    208
18.2807    183
18.2857    206
18.2907    200
18.2957    180
18.3007    146
18.3057    184
18.3107    155
18.3157    179
18.3207    134
18.3257    168
18.3307    175
18.3357    135
18.3407    151
18.3458    153
18.3508    137
18.3558    152
18.3608    133
18.3658    134
18.3708    125
18.3758    127
18.3808    119
18.3858    140
18.3908    130
18.3958    126
18.4008    121
18.4058    117
18.4108    122
18.4158    129
18.4208    115
18.4258    112
18.4308    107
18.4358    113
18.4408    115
18.4458    109
18.4508    103
18.4558     99
18.4608    105
18.4658     95
18.4709     90
18.4759     98
18.4809     81
18.4859    107
18.4909     98
18.4959     92
18.5009     84
18.5059     99
18.5109     81
18.5159     95
18.5209     77
18.5259     81
18.5309     93
18.5359     80
18.5409     81
18.5459     81
18.5509     75
18.5559     68
18.5609     72
18.5659     76
18.5709     67
18.5759     78
18.5809     78
18.5859     80
18.5909     77
 18.596     76
 18.601     84
 18.606     61
 18.611     71
 18.616     61
 18.621     69
 18.626     59
 18.631     64
 18.636     65
 18.641     70
 18.646     76
 18.651     60
 18.656     65
 18.661     64
 18.666     44
 18.671     59
 18.676     48
 18.681     50
 18.686     58
 18.691     60
 18.696     52
 18.701     66
 18.706     55
 18.711     53
 18.716     54
18.7211     49
18.7261     71
18.7311     49
18.7361     57
18.7411     48
18.7461     54
18.7511     43
18.7561     42
18.7611     58
18.7661     44
18.7711     51
18.7761     49
18.7811     45
18.7861     43
18.7911     43
18.7961     45
18.8011     41
18.8061     42
18.8111     66
18.8161     45
18.8211     36
18.8261     49
18.8311     42
18.8361     41
18.8411     44
18.8462     57
18.8512     43
18.8562     24
18.8612     43
18.8662     54
18.8712     44
18.8762     45
18.8812     44
18.8862     54
18.8912     36
18.8962     30
18.9012     35
18.9062     40
18.9112     42
18.9162     33
18.9212     33
18.9262     33
18.9312     45
18.9362     34
18.9412     33
18.9462     43
18.9512     41
18.9562     38
18.9612     30
18.9662     38
18.9713     33
18.9763     28
18.9813     27
18.9863     28
18.9913     30
18.9963     50
19.0013     36
19.0063     34
19.0113     34
19.0163     37
19.0213     38
19.0263     36
19.0313     31
19.0363     34
19.0413     33
19.0463     36
19.0513     36
19.0563     37
19.0613     40
19.0663     24
19.0713     27
19.0763     21
19.0813     31
19.0863     42
19.0913     31
19.0964     30
19.1014     37
19.1064     40
19.1114     32
19.1164     25
19.1214     28
19.1264     30
19.1314     30
19.1364     30
19.1414     22
19.1464     24
19.1514     23
19.1564     27
19.1614     20
19.1664     25
19.1714     32
19.1764     25
19.1814     20
19.1864     29
19.1914     22
19.1964     19
19.2014     23
19.2064     25
19.2114     22
19.2164     28
19.2215     24
19.2265     27
19.2315     29
19.2365     36
19.2415     21
19.2465     25
19.2515     23
19.2565     24
19.2615     22
19.2665     23
19.2715     18
19.2765     26
19.2815     19
19.2865     17
19.2915     21
19.2965     24
19.3015     24
19.3065     17
19.3115     21
19.3165     18
19.3215     16
19.3265     19
19.3315     15
19.3365     21
19.3415     14
19.3466     21
19.3516     26
19.3566     20
19.3616     22
19.3666     14
19.3716     15
19.3766     24
19.3816     21
19.3866     18
19.3916     17
19.3966     20
19.4016     18
19.4066     25
19.4116     15
19.4166     17
19.4216     16
19.4266     23
19.4316     18
19.4366     25
19.4416     25
19.4466     21
19.4516     26
19.4566     22
19.4616     22
19.4666     24
19.4717     24
19.4767     28
19.4817     30
19.4867     24
19.4917     36
19.4967     30
19.5017     36
19.5067     25
19.5117     33
19.5167     36
19.5217     27
19.5267     30
19.5317     26
19.5367     26
19.5417     27
19.5467     37
19.5517     26
19.5567     22
19.5617     33
19.5667     29
19.5717     32
19.5767     30
19.5817     36
19.5867     35
19.5917     31
19.5968     26
19.6018     29
19.6068     26
19.6118     26
19.6168     35
19.6218     26
19.6268     35
19.6318     30
19.6368     22
19.6418     27
19.6468     33
19.6518     24
19.6568     39
19.6618     19
19.6668     29
19.6718     26
19.6768     23
19.6818     33
19.6868     28
19.6918     23
19.6968     20
19.7018     28
19.7068     19
19.7118     17
19.7168     14
19.7219     19
19.7269     12
19.7319     15
19.7369     26
19.7419     23
19.7469     16
19.7519     13
19.7569     16
19.7619     16
19.7669     13
19.7719      8
19.7769     14
19.7819     13
19.7869     22
19.7919     14
19.7969     15
19.8019      9
19.8069     12
19.8119     14
19.8169     17
19.8219     16
19.8269     11
19.8319     13
19.8369     12
19.8419     10
 19.847     14
 19.852     10
 19.857     11
 19.862     18
 19.867     13
 19.872     13
 19.877     12
 19.882     16
 19.887     17
 19.892     11
 19.897     13
 19.902      8
 19.907     19
 19.912     22
 19.917     10
 19.922     11
 19.927     16
 19.932     10
 19.937     17
 19.942     19
 19.947     13
 19.952     14
 19.957     25
 19.962     16
 19.967     12
19.9721     14
19.9771     12
19.9821     17
19.9871     19
19.9921     20
19.9971     19
20.0021     21
20.0071     20
