RÖNTEC GmbH Berlin, Germany
Quantax 1.2

Date: 3/19/2019 10:30:08 AM
Real time: 786738
Life time: 600002
Pulse density: 91639


Detector type: XFLASH
Window type: 
Detector thickness: 0.45
Si dead layer:0

Calibration, lin.: 5.004
Calibration, abs.: -484.3
Mn FWHM: 135.26
Fano factor: 0.11
Channels: 4096

Energy Counts
-0.4843      0
-0.4793      0
-0.4743      0
-0.4693      0
-0.4643      0
-0.4593      0
-0.4543      0
-0.4493      0
-0.4443      0
-0.4393      0
-0.4343      0
-0.4293      0
-0.4243      0
-0.4192      0
-0.4142      0
-0.4092      0
-0.4042      0
-0.3992      0
-0.3942      0
-0.3892      0
-0.3842      0
-0.3792      0
-0.3742      0
-0.3692      0
-0.3642      0
-0.3592      0
-0.3542      0
-0.3492      0
-0.3442      0
-0.3392      0
-0.3342      0
-0.3292      0
-0.3242      0
-0.3192      0
-0.3142      0
-0.3092      0
-0.3042      0
-0.2992      0
-0.2941      0
-0.2891      0
-0.2841      0
-0.2791      0
-0.2741      0
-0.2691      0
-0.2641      0
-0.2591      0
-0.2541      0
-0.2491      0
-0.2441      0
-0.2391      0
-0.2341      0
-0.2291      0
-0.2241      0
-0.2191      0
-0.2141      0
-0.2091      0
-0.2041      0
-0.1991      0
-0.1941      0
-0.1891      0
-0.1841      0
-0.1791      0
-0.1741      0
 -0.169      0
 -0.164      0
 -0.159      0
 -0.154      0
 -0.149      2
 -0.144      1
 -0.139      3
 -0.134     12
 -0.129     18
 -0.124     31
 -0.119     76
 -0.114    163
 -0.109    355
 -0.104    619
 -0.099   1120
 -0.094   2098
 -0.089   3573
 -0.084   6040
 -0.079  10128
 -0.074  16364
 -0.069  25137
 -0.064  38008
 -0.059  54966
 -0.054  77250
 -0.049 106337
-0.0439 140581
-0.0389 179237
-0.0339 223566
-0.0289 269440
-0.0239 313227
-0.0189 354201
-0.0139 387460
-0.0089 411112
-0.0039 421489
 0.0011 419398
 0.0061 404734
 0.0111 380174
 0.0161 342830
 0.0211 302181
 0.0261 258004
 0.0311 212359
 0.0361 170920
 0.0411 132292
 0.0461  99922
 0.0511  73400
 0.0561  52448
 0.0611  36288
 0.0661  24257
 0.0711  16143
 0.0761  10264
 0.0812   6662
 0.0862   4115
 0.0912   2586
 0.0962   1567
 0.1012   1066
 0.1062    721
 0.1112    561
 0.1162    481
 0.1212    389
 0.1262    350
 0.1312    310
 0.1362    284
 0.1412    277
 0.1462    264
 0.1512    229
 0.1562    204
 0.1612    173
 0.1662    139
 0.1712    116
 0.1762    105
 0.1812     98
 0.1862     99
 0.1912     88
 0.1962     98
 0.2012     74
 0.2063     58
 0.2113     56
 0.2163     57
 0.2213     69
 0.2263     66
 0.2313     48
 0.2363     34
 0.2413     43
 0.2463     30
 0.2513     38
 0.2563     30
 0.2613     25
 0.2663     20
 0.2713     25
 0.2763     18
 0.2813     26
 0.2863      4
 0.2913     12
 0.2963     13
 0.3013     17
 0.3063      9
 0.3113     18
 0.3163     23
 0.3213     17
 0.3263     32
 0.3314     41
 0.3364     98
 0.3414    291
 0.3464    836
 0.3514   1922
 0.3564   2852
 0.3614   3520
 0.3664   3788
 0.3714   3785
 0.3764   3800
 0.3814   3730
 0.3864   3850
 0.3914   3774
 0.3964   3707
 0.4014   3719
 0.4064   3640
 0.4114   3628
 0.4164   3654
 0.4214   3507
 0.4264   3507
 0.4314   3529
 0.4364   3520
 0.4414   3390
 0.4464   3420
 0.4514   3370
 0.4565   3329
 0.4615   3204
 0.4665   3397
 0.4715   3295
 0.4765   3239
 0.4815   3112
 0.4865   3155
 0.4915   3184
 0.4965   3149
 0.5015   3073
 0.5065   3215
 0.5115   3132
 0.5165   3105
 0.5215   3087
 0.5265   3126
 0.5315   3157
 0.5365   3065
 0.5415   3122
 0.5465   3069
 0.5515   3023
 0.5565   3096
 0.5615   2993
 0.5665   3090
 0.5715   3001
 0.5765   3059
 0.5816   3043
 0.5866   3043
 0.5916   2903
 0.5966   2900
 0.6016   2861
 0.6066   2946
 0.6116   2866
 0.6166   2834
 0.6216   2803
 0.6266   2805
 0.6316   2721
 0.6366   2725
 0.6416   2773
 0.6466   2743
 0.6516   2721
 0.6566   2662
 0.6616   2801
 0.6666   2755
 0.6716   2653
 0.6766   2662
 0.6816   2634
 0.6866   2712
 0.6916   2643
 0.6966   2702
 0.7016   2612
 0.7067   2607
 0.7117   2644
 0.7167   2596
 0.7217   2592
 0.7267   2600
 0.7317   2627
 0.7367   2587
 0.7417   2546
 0.7467   2566
 0.7517   2581
 0.7567   2649
 0.7617   2606
 0.7667   2439
 0.7717   2637
 0.7767   2600
 0.7817   2541
 0.7867   2535
 0.7917   2572
 0.7967   2528
 0.8017   2449
 0.8067   2617
 0.8117   2392
 0.8167   2568
 0.8217   2544
 0.8267   2472
 0.8318   2545
 0.8368   2414
 0.8418   2484
 0.8468   2344
 0.8518   2446
 0.8568   2462
 0.8618   2512
 0.8668   2514
 0.8718   2418
 0.8768   2457
 0.8818   2439
 0.8868   2486
 0.8918   2519
 0.8968   2479
 0.9018   2413
 0.9068   2374
 0.9118   2385
 0.9168   2320
 0.9218   2471
 0.9268   2456
 0.9318   2384
 0.9368   2351
 0.9418   2403
 0.9468   2471
 0.9518   2330
 0.9569   2317
 0.9619   2310
 0.9669   2335
 0.9719   2425
 0.9769   2186
 0.9819   2378
 0.9869   2393
 0.9919   2298
 0.9969   2273
 1.0019   2228
 1.0069   2301
 1.0119   2393
 1.0169   2336
 1.0219   2240
 1.0269   2269
 1.0319   2306
 1.0369   2277
 1.0419   2292
 1.0469   2272
 1.0519   2301
 1.0569   2196
 1.0619   2207
 1.0669   2327
 1.0719   2202
 1.0769   2180
  1.082   2148
  1.087   2238
  1.092   2171
  1.097   2140
  1.102   2058
  1.107   2205
  1.112   2073
  1.117   2069
  1.122   2099
  1.127   2059
  1.132   2062
  1.137   2119
  1.142   2058
  1.147   2146
  1.152   1987
  1.157   1964
  1.162   2032
  1.167   2092
  1.172   2006
  1.177   2091
  1.182   1999
  1.187   2040
  1.192   1994
  1.197   2138
  1.202   2061
 1.2071   2131
 1.2121   2170
 1.2171   2134
 1.2221   2086
 1.2271   2133
 1.2321   2121
 1.2371   2142
 1.2421   2155
 1.2471   2226
 1.2521   2225
 1.2571   2210
 1.2621   2206
 1.2671   2129
 1.2721   2105
 1.2771   2119
 1.2821   2125
 1.2871   2066
 1.2921   2077
 1.2971   2109
 1.3021   2008
 1.3071   2008
 1.3121   2100
 1.3171   1939
 1.3221   2037
 1.3271   1960
 1.3322   1870
 1.3372   2057
 1.3422   1929
 1.3472   1854
 1.3522   1861
 1.3572   1834
 1.3622   1899
 1.3672   1891
 1.3722   1937
 1.3772   1958
 1.3822   1990
 1.3872   2025
 1.3922   1976
 1.3972   2057
 1.4022   2090
 1.4072   2123
 1.4122   2322
 1.4172   2292
 1.4222   2482
 1.4272   2598
 1.4322   2609
 1.4372   2891
 1.4422   3061
 1.4472   3068
 1.4522   3409
 1.4573   3539
 1.4623   3818
 1.4673   3931
 1.4723   4031
 1.4773   4143
 1.4823   4223
 1.4873   4285
 1.4923   4270
 1.4973   4410
 1.5023   4285
 1.5073   4010
 1.5123   4019
 1.5173   3847
 1.5223   3712
 1.5273   3426
 1.5323   3499
 1.5373   3131
 1.5423   3109
 1.5473   2970
 1.5523   2850
 1.5573   2598
 1.5623   2645
 1.5673   2471
 1.5723   2464
 1.5773   2466
 1.5824   2243
 1.5874   2326
 1.5924   2237
 1.5974   2162
 1.6024   2124
 1.6074   2170
 1.6124   2200
 1.6174   2040
 1.6224   2114
 1.6274   2106
 1.6324   2231
 1.6374   2261
 1.6424   2295
 1.6474   2473
 1.6524   2658
 1.6574   2821
 1.6624   3144
 1.6674   3384
 1.6724   3860
 1.6774   4266
 1.6824   4744
 1.6874   5437
 1.6924   6057
 1.6974   6767
 1.7024   7605
 1.7075   7972
 1.7125   8827
 1.7175   9520
 1.7225  10050
 1.7275  10673
 1.7325  11033
 1.7375  11173
 1.7425  11093
 1.7475  11289
 1.7525  11099
 1.7575  10582
 1.7625  10191
 1.7675   9667
 1.7725   9269
 1.7775   8577
 1.7825   7970
 1.7875   7181
 1.7925   6584
 1.7975   6173
 1.8025   5605
 1.8075   5380
 1.8125   4842
 1.8175   4513
 1.8225   4336
 1.8275   4104
 1.8326   3926
 1.8376   3971
 1.8426   3890
 1.8476   3912
 1.8526   3971
 1.8576   4159
 1.8626   4163
 1.8676   4347
 1.8726   4825
 1.8776   5045
 1.8826   5494
 1.8876   5938
 1.8926   6464
 1.8976   6986
 1.9026   7749
 1.9076   8133
 1.9126   9067
 1.9176   9526
 1.9226  10150
 1.9276  10809
 1.9326  11136
 1.9376  11649
 1.9426  11955
 1.9476  11997
 1.9526  11918
 1.9577  11868
 1.9627  11787
 1.9677  11112
 1.9727  10457
 1.9777  10069
 1.9827   9208
 1.9877   8502
 1.9927   8072
 1.9977   7322
 2.0027   6829
 2.0077   6071
 2.0127   5415
 2.0177   5061
 2.0227   4584
 2.0277   4268
 2.0327   3942
 2.0377   3634
 2.0427   3491
 2.0477   3240
 2.0527   3048
 2.0577   3013
 2.0627   2766
 2.0677   2785
 2.0727   2662
 2.0777   2613
 2.0828   2656
 2.0878   2567
 2.0928   2425
 2.0978   2492
 2.1028   2421
 2.1078   2419
 2.1128   2475
 2.1178   2440
 2.1228   2427
 2.1278   2315
 2.1328   2372
 2.1378   2403
 2.1428   2435
 2.1478   2391
 2.1528   2342
 2.1578   2348
 2.1628   2409
 2.1678   2424
 2.1728   2453
 2.1778   2557
 2.1828   2457
 2.1878   2585
 2.1928   2580
 2.1978   2701
 2.2028   2822
 2.2079   3037
 2.2129   3055
 2.2179   3311
 2.2229   3507
 2.2279   3707
 2.2329   4049
 2.2379   4239
 2.2429   4787
 2.2479   5055
 2.2529   5393
 2.2579   5956
 2.2629   6351
 2.2679   6691
 2.2729   7253
 2.2779   7579
 2.2829   7913
 2.2879   8066
 2.2929   8461
 2.2979   8664
 2.3029   9044
 2.3079   8872
 2.3129   8575
 2.3179   8622
 2.3229   8398
 2.3279   8164
  2.333   7732
  2.338   7267
  2.343   6892
  2.348   6519
  2.353   5965
  2.358   5583
  2.363   5160
  2.368   4753
  2.373   4301
  2.378   3875
  2.383   3688
  2.388   3337
  2.393   3180
  2.398   3003
  2.403   2866
  2.408   2683
  2.413   2560
  2.418   2515
  2.423   2456
  2.428   2410
  2.433   2404
  2.438   2438
  2.443   2409
  2.448   2405
  2.453   2361
 2.4581   2384
 2.4631   2359
 2.4681   2384
 2.4731   2434
 2.4781   2293
 2.4831   2320
 2.4881   2375
 2.4931   2404
 2.4981   2263
 2.5031   2270
 2.5081   2239
 2.5131   2245
 2.5181   2198
 2.5231   2163
 2.5281   2134
 2.5331   2115
 2.5381   2068
 2.5431   2113
 2.5481   2132
 2.5531   2111
 2.5581   2093
 2.5631   2154
 2.5681   2008
 2.5731   2159
 2.5781   2059
 2.5832   2218
 2.5882   2136
 2.5932   2270
 2.5982   2246
 2.6032   2240
 2.6082   2269
 2.6132   2325
 2.6182   2248
 2.6232   2267
 2.6282   2243
 2.6332   2251
 2.6382   2340
 2.6432   2230
 2.6482   2343
 2.6532   2260
 2.6582   2184
 2.6632   2207
 2.6682   2230
 2.6732   2217
 2.6782   2248
 2.6832   2205
 2.6882   2201
 2.6932   2102
 2.6982   2155
 2.7032   2152
 2.7083   2142
 2.7133   2164
 2.7183   2259
 2.7233   2205
 2.7283   2209
 2.7333   2249
 2.7383   2176
 2.7433   2258
 2.7483   2315
 2.7533   2209
 2.7583   2294
 2.7633   2267
 2.7683   2269
 2.7733   2257
 2.7783   2283
 2.7833   2343
 2.7883   2315
 2.7933   2234
 2.7983   2215
 2.8033   2297
 2.8083   2203
 2.8133   2269
 2.8183   2179
 2.8233   2345
 2.8283   2264
 2.8334   2330
 2.8384   2270
 2.8434   2261
 2.8484   2184
 2.8534   2208
 2.8584   2200
 2.8634   2329
 2.8684   2278
 2.8734   2367
 2.8784   2294
 2.8834   2414
 2.8884   2364
 2.8934   2373
 2.8984   2514
 2.9034   2431
 2.9084   2486
 2.9134   2644
 2.9184   2631
 2.9234   2713
 2.9284   2731
 2.9334   2658
 2.9384   2782
 2.9434   2680
 2.9484   2785
 2.9534   2810
 2.9585   2827
 2.9635   2915
 2.9685   2876
 2.9735   2967
 2.9785   2848
 2.9835   2760
 2.9885   2801
 2.9935   2988
 2.9985   2882
 3.0035   2840
 3.0085   2843
 3.0135   2778
 3.0185   2687
 3.0235   2781
 3.0285   2674
 3.0335   2751
 3.0385   2640
 3.0435   2664
 3.0485   2636
 3.0535   2728
 3.0585   2756
 3.0635   2788
 3.0685   2671
 3.0735   2717
 3.0785   2669
 3.0836   2828
 3.0886   2729
 3.0936   2853
 3.0986   2833
 3.1036   2856
 3.1086   2970
 3.1136   2968
 3.1186   2911
 3.1236   2923
 3.1286   2948
 3.1336   3049
 3.1386   3077
 3.1436   3222
 3.1486   3137
 3.1536   3159
 3.1586   3257
 3.1636   3348
 3.1686   3418
 3.1736   3509
 3.1786   3561
 3.1836   3667
 3.1886   3811
 3.1936   4035
 3.1986   4215
 3.2036   4372
 3.2087   4553
 3.2137   5159
 3.2187   5639
 3.2237   6074
 3.2287   6472
 3.2337   7212
 3.2387   8020
 3.2437   8942
 3.2487   9777
 3.2537  10695
 3.2587  11924
 3.2637  12759
 3.2687  13977
 3.2737  15097
 3.2787  16247
 3.2837  17567
 3.2887  18606
 3.2937  19432
 3.2987  20312
 3.3037  20813
 3.3087  21375
 3.3137  21802
 3.3187  21953
 3.3237  21698
 3.3287  21320
 3.3338  20913
 3.3388  20067
 3.3438  19475
 3.3488  18251
 3.3538  17258
 3.3588  16322
 3.3638  14783
 3.3688  14019
 3.3738  12759
 3.3788  11603
 3.3838  10769
 3.3888   9728
 3.3938   8920
 3.3988   7968
 3.4038   7358
 3.4088   6742
 3.4138   6093
 3.4188   5732
 3.4238   5362
 3.4288   5060
 3.4338   5064
 3.4388   4925
 3.4438   4756
 3.4488   4679
 3.4538   4702
 3.4589   4739
 3.4639   4961
 3.4689   5180
 3.4739   5365
 3.4789   5462
 3.4839   5749
 3.4889   6041
 3.4939   6384
 3.4989   6893
 3.5039   7234
 3.5089   7858
 3.5139   8551
 3.5189   9341
 3.5239  10446
 3.5289  11624
 3.5339  13188
 3.5389  15486
 3.5439  17656
 3.5489  20343
 3.5539  24212
 3.5589  29053
 3.5639  34399
 3.5689  41341
 3.5739  49905
 3.5789  60402
  3.584  72588
  3.589  88047
  3.594 105773
  3.599 126606
  3.604 150635
  3.609 178273
  3.614 208557
  3.619 243672
  3.624 282072
  3.629 324536
  3.634 367358
  3.639 414315
  3.644 460285
  3.649 508554
  3.654 556328
  3.659 602555
  3.664 646064
  3.669 685851
  3.674 721585
  3.679 751031
  3.684 771921
  3.689 787295
  3.694 792557
  3.699 791371
  3.704 781280
 3.7091 764998
 3.7141 740165
 3.7191 710174
 3.7241 672743
 3.7291 631067
 3.7341 584798
 3.7391 538444
 3.7441 489436
 3.7491 440491
 3.7541 391271
 3.7591 347148
 3.7641 303226
 3.7691 261984
 3.7741 224688
 3.7791 190917
 3.7841 160555
 3.7891 133714
 3.7941 110999
 3.7991  90687
 3.8041  73952
 3.8091  60157
 3.8141  48506
 3.8191  38874
 3.8241  31434
 3.8291  25360
 3.8342  20718
 3.8392  17076
 3.8442  14329
 3.8492  12238
 3.8542  10713
 3.8592   9997
 3.8642   9400
 3.8692   9169
 3.8742   9250
 3.8792   9538
 3.8842  10160
 3.8892  10932
 3.8942  12173
 3.8992  13417
 3.9042  14963
 3.9092  16974
 3.9142  19003
 3.9192  21486
 3.9242  25037
 3.9292  28218
 3.9342  31838
 3.9392  36310
 3.9442  40544
 3.9492  46047
 3.9542  50902
 3.9593  56456
 3.9643  62073
 3.9693  68241
 3.9743  73774
 3.9793  79481
 3.9843  84950
 3.9893  89509
 3.9943  94176
 3.9993  98139
 4.0043 101345
 4.0093 103372
 4.0143 105278
 4.0193 104554
 4.0243 104700
 4.0293 103121
 4.0343 100092
 4.0393  97199
 4.0443  92846
 4.0493  87540
 4.0543  82636
 4.0593  76886
 4.0643  70901
 4.0693  65219
 4.0743  58342
 4.0793  52757
 4.0844  46837
 4.0894  40994
 4.0944  36296
 4.0994  31617
 4.1044  27101
 4.1094  23137
 4.1144  19587
 4.1194  16421
 4.1244  13767
 4.1294  11740
 4.1344   9707
 4.1394   8076
 4.1444   6702
 4.1494   5409
 4.1544   4640
 4.1594   3770
 4.1644   3159
 4.1694   2795
 4.1744   2303
 4.1794   2070
 4.1844   1843
 4.1894   1606
 4.1944   1514
 4.1994   1338
 4.2044   1268
 4.2095   1290
 4.2145   1188
 4.2195   1141
 4.2245   1098
 4.2295   1103
 4.2345   1041
 4.2395   1058
 4.2445   1086
 4.2495   1058
 4.2545   1061
 4.2595   1030
 4.2645   1050
 4.2695   1054
 4.2745   1017
 4.2795   1005
 4.2845   1039
 4.2895   1043
 4.2945   1030
 4.2995   1020
 4.3045   1055
 4.3095   1047
 4.3145   1067
 4.3195   1046
 4.3245   1103
 4.3295   1078
 4.3346   1104
 4.3396   1139
 4.3446   1212
 4.3496   1245
 4.3546   1312
 4.3596   1300
 4.3646   1382
 4.3696   1470
 4.3746   1761
 4.3796   1800
 4.3846   2041
 4.3896   2204
 4.3946   2492
 4.3996   2786
 4.4046   3142
 4.4096   3548
 4.4146   4002
 4.4196   4560
 4.4246   5138
 4.4296   5744
 4.4346   6484
 4.4396   7217
 4.4446   8017
 4.4496   8908
 4.4546   9801
 4.4597  10556
 4.4647  11508
 4.4697  12357
 4.4747  13201
 4.4797  13777
 4.4847  14869
 4.4897  15170
 4.4947  15871
 4.4997  15846
 4.5047  16366
 4.5097  16714
 4.5147  16270
 4.5197  16268
 4.5247  16186
 4.5297  15632
 4.5347  15052
 4.5397  14688
 4.5447  13980
 4.5497  12955
 4.5547  12224
 4.5597  11542
 4.5647  10762
 4.5697   9648
 4.5747   9033
 4.5797   8134
 4.5848   7537
 4.5898   6650
 4.5948   6118
 4.5998   5594
 4.6048   5010
 4.6098   4551
 4.6148   4231
 4.6198   3847
 4.6248   3545
 4.6298   3345
 4.6348   3154
 4.6398   2971
 4.6448   3017
 4.6498   2754
 4.6548   2591
 4.6598   2582
 4.6648   2407
 4.6698   2300
 4.6748   2230
 4.6798   2225
 4.6848   2107
 4.6898   2038
 4.6948   2034
 4.6998   1830
 4.7048   1809
 4.7099   1662
 4.7149   1648
 4.7199   1643
 4.7249   1583
 4.7299   1490
 4.7349   1425
 4.7399   1398
 4.7449   1378
 4.7499   1344
 4.7549   1344
 4.7599   1288
 4.7649   1378
 4.7699   1386
 4.7749   1420
 4.7799   1410
 4.7849   1474
 4.7899   1435
 4.7949   1626
 4.7999   1585
 4.8049   1708
 4.8099   1715
 4.8149   1810
 4.8199   1807
 4.8249   1907
 4.8299   2029
  4.835   2092
   4.84   2154
  4.845   2150
   4.85   2268
  4.855   2446
   4.86   2484
  4.865   2603
   4.87   2638
  4.875   2753
   4.88   2878
  4.885   3004
   4.89   3151
  4.895   3191
    4.9   3294
  4.905   3276
   4.91   3463
  4.915   3469
   4.92   3482
  4.925   3494
   4.93   3539
  4.935   3484
   4.94   3610
  4.945   3564
   4.95   3454
  4.955   3391
 4.9601   3222
 4.9651   3250
 4.9701   3120
 4.9751   2984
 4.9801   2763
 4.9851   2678
 4.9901   2483
 4.9951   2414
 5.0001   2254
 5.0051   2129
 5.0101   1962
 5.0151   1811
 5.0201   1778
 5.0251   1610
 5.0301   1553
 5.0351   1437
 5.0401   1285
 5.0451   1193
 5.0501   1163
 5.0551   1170
 5.0601   1027
 5.0651   1002
 5.0701   1047
 5.0751    951
 5.0801    938
 5.0852    932
 5.0902    901
 5.0952    916
 5.1002    897
 5.1052    911
 5.1102    947
 5.1152    901
 5.1202    880
 5.1252    974
 5.1302    913
 5.1352    938
 5.1402    964
 5.1452   1007
 5.1502   1003
 5.1552    999
 5.1602    941
 5.1652   1047
 5.1702    945
 5.1752    975
 5.1802   1006
 5.1852   1021
 5.1902   1053
 5.1952    996
 5.2002   1009
 5.2052   1015
 5.2103   1013
 5.2153   1043
 5.2203   1023
 5.2253   1029
 5.2303   1055
 5.2353   1025
 5.2403   1037
 5.2453   1138
 5.2503    993
 5.2553   1016
 5.2603   1052
 5.2653   1068
 5.2703   1089
 5.2753   1102
 5.2803   1035
 5.2853   1082
 5.2903   1124
 5.2953   1135
 5.3003   1108
 5.3053   1140
 5.3103   1129
 5.3153   1156
 5.3203   1206
 5.3253   1225
 5.3303   1234
 5.3354   1303
 5.3404   1274
 5.3454   1236
 5.3504   1277
 5.3554   1371
 5.3604   1376
 5.3654   1448
 5.3704   1535
 5.3754   1480
 5.3804   1537
 5.3854   1571
 5.3904   1565
 5.3954   1584
 5.4004   1526
 5.4054   1546
 5.4104   1602
 5.4154   1647
 5.4204   1606
 5.4254   1559
 5.4304   1560
 5.4354   1489
 5.4404   1555
 5.4454   1401
 5.4504   1520
 5.4554   1483
 5.4605   1405
 5.4655   1375
 5.4705   1372
 5.4755   1377
 5.4805   1331
 5.4855   1267
 5.4905   1223
 5.4955   1285
 5.5005   1225
 5.5055   1063
 5.5105   1138
 5.5155   1068
 5.5205   1079
 5.5255   1073
 5.5305   1067
 5.5355   1087
 5.5405   1040
 5.5455   1026
 5.5505    993
 5.5555   1011
 5.5605    993
 5.5655    998
 5.5705   1048
 5.5755    977
 5.5805   1030
 5.5856    948
 5.5906    979
 5.5956    949
 5.6006    960
 5.6056   1003
 5.6106    906
 5.6156    993
 5.6206    915
 5.6256    939
 5.6306    973
 5.6356    971
 5.6406    983
 5.6456   1034
 5.6506    930
 5.6556    959
 5.6606    935
 5.6656    931
 5.6706    924
 5.6756    996
 5.6806    928
 5.6856    958
 5.6906    991
 5.6956    959
 5.7006    988
 5.7056   1024
 5.7107   1044
 5.7157   1014
 5.7207   1111
 5.7257   1152
 5.7307   1204
 5.7357   1201
 5.7407   1343
 5.7457   1296
 5.7507   1432
 5.7557   1553
 5.7607   1602
 5.7657   1821
 5.7707   1965
 5.7757   2242
 5.7807   2405
 5.7857   2678
 5.7907   2994
 5.7957   3290
 5.8007   3655
 5.8057   4046
 5.8107   4452
 5.8157   5066
 5.8207   5544
 5.8257   5931
 5.8307   6582
 5.8358   6990
 5.8408   7753
 5.8458   8449
 5.8508   8868
 5.8558   9405
 5.8608   9867
 5.8658  10266
 5.8708  10633
 5.8758  11218
 5.8808  11375
 5.8858  11373
 5.8908  11787
 5.8958  11802
 5.9008  11679
 5.9058  11697
 5.9108  11632
 5.9158  11367
 5.9208  11034
 5.9258  10628
 5.9308  10204
 5.9358   9931
 5.9408   9243
 5.9458   8835
 5.9508   8196
 5.9558   7872
 5.9609   7193
 5.9659   6567
 5.9709   6156
 5.9759   5490
 5.9809   5024
 5.9859   4604
 5.9909   4346
 5.9959   3887
 6.0009   3470
 6.0059   3286
 6.0109   2903
 6.0159   2665
 6.0209   2523
 6.0259   2286
 6.0309   2161
 6.0359   1988
 6.0409   1992
 6.0459   1826
 6.0509   1734
 6.0559   1682
 6.0609   1658
 6.0659   1674
 6.0709   1666
 6.0759   1652
 6.0809   1626
  6.086   1648
  6.091   1670
  6.096   1688
  6.101   1725
  6.106   1744
  6.111   1778
  6.116   1777
  6.121   1814
  6.126   1878
  6.131   1879
  6.136   1938
  6.141   1994
  6.146   2024
  6.151   2152
  6.156   2298
  6.161   2222
  6.166   2409
  6.171   2472
  6.176   2617
  6.181   2805
  6.186   3023
  6.191   3255
  6.196   3515
  6.201   3870
  6.206   4355
 6.2111   4747
 6.2161   5483
 6.2211   6511
 6.2261   7445
 6.2311   8558
 6.2361   9971
 6.2411  11864
 6.2461  13829
 6.2511  16472
 6.2561  19534
 6.2611  23237
 6.2661  27339
 6.2711  32287
 6.2761  37817
 6.2811  44294
 6.2861  51638
 6.2911  59483
 6.2961  68719
 6.3011  78846
 6.3061  89750
 6.3111 101643
 6.3161 113970
 6.3211 127910
 6.3261 142607
 6.3311 157430
 6.3362 173115
 6.3412 188915
 6.3462 203269
 6.3512 218094
 6.3562 233461
 6.3612 248536
 6.3662 261111
 6.3712 273298
 6.3762 284261
 6.3812 292720
 6.3862 299504
 6.3912 307324
 6.3962 309942
 6.4012 310145
 6.4062 309238
 6.4112 305790
 6.4162 301444
 6.4212 293019
 6.4262 283774
 6.4312 274143
 6.4362 262041
 6.4412 248801
 6.4462 236719
 6.4512 220384
 6.4562 204674
 6.4613 188936
 6.4663 174344
 6.4713 158916
 6.4763 143997
 6.4813 129878
 6.4863 116150
 6.4913 103038
 6.4963  90976
 6.5013  78950
 6.5063  70000
 6.5113  59733
 6.5163  51574
 6.5213  44646
 6.5263  37890
 6.5313  31960
 6.5363  27350
 6.5413  22657
 6.5463  18945
 6.5513  15680
 6.5563  13240
 6.5613  10962
 6.5663   9171
 6.5713   7598
 6.5763   6457
 6.5813   5361
 6.5864   4408
 6.5914   3738
 6.5964   3155
 6.6014   2735
 6.6064   2346
 6.6114   2125
 6.6164   1894
 6.6214   1698
 6.6264   1565
 6.6314   1401
 6.6364   1341
 6.6414   1306
 6.6464   1212
 6.6514   1231
 6.6564   1163
 6.6614   1110
 6.6664   1105
 6.6714   1046
 6.6764   1092
 6.6814   1048
 6.6864   1085
 6.6914   1059
 6.6964   1046
 6.7014    991
 6.7064    972
 6.7115   1012
 6.7165    978
 6.7215    994
 6.7265    985
 6.7315    962
 6.7365    957
 6.7415    982
 6.7465    944
 6.7515   1047
 6.7565   1073
 6.7615   1039
 6.7665   1041
 6.7715   1086
 6.7765   1129
 6.7815   1101
 6.7865   1079
 6.7915   1103
 6.7965   1153
 6.8015   1214
 6.8065   1247
 6.8115   1268
 6.8165   1265
 6.8215   1327
 6.8265   1391
 6.8315   1441
 6.8366   1532
 6.8416   1639
 6.8466   1734
 6.8516   1732
 6.8566   1916
 6.8616   1967
 6.8666   2132
 6.8716   2313
 6.8766   2390
 6.8816   2647
 6.8866   2951
 6.8916   3160
 6.8966   3503
 6.9016   3899
 6.9066   4385
 6.9116   4744
 6.9166   5101
 6.9216   6000
 6.9266   6759
 6.9316   7442
 6.9366   8451
 6.9416   9340
 6.9466  10549
 6.9516  11564
 6.9566  12902
 6.9617  14276
 6.9667  15763
 6.9717  17661
 6.9767  19066
 6.9817  21210
 6.9867  22951
 6.9917  24711
 6.9967  26885
 7.0017  28374
 7.0067  30215
 7.0117  32116
 7.0167  33600
 7.0217  35194
 7.0267  36431
 7.0317  38086
 7.0367  38855
 7.0417  39491
 7.0467  40354
 7.0517  40465
 7.0567  40882
 7.0617  40685
 7.0667  40335
 7.0717  40001
 7.0767  39121
 7.0817  37587
 7.0868  36717
 7.0918  35072
 7.0968  33299
 7.1018  31758
 7.1068  29999
 7.1118  28010
 7.1168  26237
 7.1218  24403
 7.1268  22211
 7.1318  20527
 7.1368  18674
 7.1418  16694
 7.1468  15135
 7.1518  13673
 7.1568  12151
 7.1618  10720
 7.1668   9520
 7.1718   8384
 7.1768   7335
 7.1818   6327
 7.1868   5578
 7.1918   4629
 7.1968   4151
 7.2018   3499
 7.2068   3066
 7.2119   2715
 7.2169   2280
 7.2219   2044
 7.2269   1725
 7.2319   1611
 7.2369   1380
 7.2419   1249
 7.2469   1157
 7.2519   1091
 7.2569   1040
 7.2619   1046
 7.2669   1096
 7.2719   1078
 7.2769   1130
 7.2819   1159
 7.2869   1238
 7.2919   1194
 7.2969   1292
 7.3019   1406
 7.3069   1500
 7.3119   1615
 7.3169   1642
 7.3219   1776
 7.3269   1849
 7.3319   1963
  7.337   2008
  7.342   2082
  7.347   2192
  7.352   2230
  7.357   2323
  7.362   2381
  7.367   2431
  7.372   2607
  7.377   2477
  7.382   2559
  7.387   2628
  7.392   2616
  7.397   2617
  7.402   2699
  7.407   2665
  7.412   2491
  7.417   2512
  7.422   2526
  7.427   2393
  7.432   2311
  7.437   2374
  7.442   2244
  7.447   2133
  7.452   2105
  7.457   2056
 7.4621   2022
 7.4671   1979
 7.4721   1856
 7.4771   1767
 7.4821   1721
 7.4871   1571
 7.4921   1545
 7.4971   1403
 7.5021   1352
 7.5071   1354
 7.5121   1166
 7.5171   1204
 7.5221   1169
 7.5271   1073
 7.5321    926
 7.5371    892
 7.5421    812
 7.5471    816
 7.5521    739
 7.5571    703
 7.5621    685
 7.5671    650
 7.5721    580
 7.5771    581
 7.5821    555
 7.5872    513
 7.5922    568
 7.5972    532
 7.6022    522
 7.6072    547
 7.6122    497
 7.6172    525
 7.6222    527
 7.6272    583
 7.6322    592
 7.6372    567
 7.6422    622
 7.6472    641
 7.6522    640
 7.6572    649
 7.6622    664
 7.6672    733
 7.6722    655
 7.6772    677
 7.6822    737
 7.6872    755
 7.6922    668
 7.6972    753
 7.7022    766
 7.7072    711
 7.7123    695
 7.7173    733
 7.7223    743
 7.7273    672
 7.7323    685
 7.7373    698
 7.7423    674
 7.7473    609
 7.7523    629
 7.7573    569
 7.7623    586
 7.7673    555
 7.7723    533
 7.7773    517
 7.7823    541
 7.7873    472
 7.7923    486
 7.7973    450
 7.8023    471
 7.8073    470
 7.8123    436
 7.8173    424
 7.8223    391
 7.8273    401
 7.8323    417
 7.8374    417
 7.8424    390
 7.8474    401
 7.8524    412
 7.8574    427
 7.8624    445
 7.8674    430
 7.8724    431
 7.8774    447
 7.8824    405
 7.8874    456
 7.8924    456
 7.8974    461
 7.9024    472
 7.9074    461
 7.9124    460
 7.9174    502
 7.9224    503
 7.9274    525
 7.9324    500
 7.9374    525
 7.9424    530
 7.9474    530
 7.9524    548
 7.9574    558
 7.9625    564
 7.9675    544
 7.9725    572
 7.9775    591
 7.9825    628
 7.9875    657
 7.9925    645
 7.9975    645
 8.0025    633
 8.0075    667
 8.0125    686
 8.0175    671
 8.0225    708
 8.0275    722
 8.0325    720
 8.0375    742
 8.0425    758
 8.0475    683
 8.0525    743
 8.0575    722
 8.0625    721
 8.0675    651
 8.0725    677
 8.0775    674
 8.0825    643
 8.0876    651
 8.0926    652
 8.0976    582
 8.1026    559
 8.1076    552
 8.1126    539
 8.1176    506
 8.1226    528
 8.1276    456
 8.1326    447
 8.1376    467
 8.1426    442
 8.1476    430
 8.1526    395
 8.1576    430
 8.1626    405
 8.1676    377
 8.1726    421
 8.1776    408
 8.1826    421
 8.1876    404
 8.1926    373
 8.1976    399
 8.2026    401
 8.2076    373
 8.2127    344
 8.2177    399
 8.2227    393
 8.2277    364
 8.2327    379
 8.2377    362
 8.2427    368
 8.2477    374
 8.2527    381
 8.2577    377
 8.2627    354
 8.2677    369
 8.2727    373
 8.2777    381
 8.2827    363
 8.2877    396
 8.2927    354
 8.2977    367
 8.3027    339
 8.3077    329
 8.3127    345
 8.3177    338
 8.3227    352
 8.3277    331
 8.3327    336
 8.3378    345
 8.3428    321
 8.3478    306
 8.3528    317
 8.3578    320
 8.3628    318
 8.3678    294
 8.3728    312
 8.3778    280
 8.3828    300
 8.3878    347
 8.3928    336
 8.3978    319
 8.4028    331
 8.4078    326
 8.4128    347
 8.4178    402
 8.4228    389
 8.4278    438
 8.4328    467
 8.4378    463
 8.4428    493
 8.4478    552
 8.4528    618
 8.4578    721
 8.4629    787
 8.4679    905
 8.4729   1002
 8.4779   1173
 8.4829   1413
 8.4879   1511
 8.4929   1697
 8.4979   1934
 8.5029   2119
 8.5079   2362
 8.5129   2638
 8.5179   2966
 8.5229   3277
 8.5279   3759
 8.5329   4279
 8.5379   4353
 8.5429   4998
 8.5479   5467
 8.5529   5945
 8.5579   6396
 8.5629   6878
 8.5679   7378
 8.5729   7882
 8.5779   8363
 8.5829   8969
  8.588   9222
  8.593   9620
  8.598   9929
  8.603  10390
  8.608  10676
  8.613  10813
  8.618  11371
  8.623  11172
  8.628  11431
  8.633  11270
  8.638  11158
  8.643  10915
  8.648  10973
  8.653  10836
  8.658  10563
  8.663  10174
  8.668   9873
  8.673   9368
  8.678   9186
  8.683   8489
  8.688   8215
  8.693   7522
  8.698   7125
  8.703   6684
  8.708   6175
 8.7131   5562
 8.7181   5249
 8.7231   4694
 8.7281   4313
 8.7331   3839
 8.7381   3475
 8.7431   3158
 8.7481   2757
 8.7531   2507
 8.7581   2219
 8.7631   1999
 8.7681   1740
 8.7731   1495
 8.7781   1360
 8.7831   1191
 8.7881   1025
 8.7931    898
 8.7981    779
 8.8031    722
 8.8081    629
 8.8131    595
 8.8181    543
 8.8231    485
 8.8281    433
 8.8331    395
 8.8382    396
 8.8432    351
 8.8482    331
 8.8532    294
 8.8582    311
 8.8632    335
 8.8682    304
 8.8732    285
 8.8782    323
 8.8832    303
 8.8882    336
 8.8932    318
 8.8982    340
 8.9032    341
 8.9082    323
 8.9132    346
 8.9182    319
 8.9232    335
 8.9282    353
 8.9332    355
 8.9382    376
 8.9432    364
 8.9482    350
 8.9532    380
 8.9582    354
 8.9633    376
 8.9683    401
 8.9733    379
 8.9783    400
 8.9833    452
 8.9883    392
 8.9933    426
 8.9983    451
 9.0033    459
 9.0083    442
 9.0133    424
 9.0183    507
 9.0233    526
 9.0283    585
 9.0333    586
 9.0383    580
 9.0433    661
 9.0483    705
 9.0533    722
 9.0583    754
 9.0633    915
 9.0683    944
 9.0733   1016
 9.0783   1200
 9.0833   1279
 9.0884   1472
 9.0934   1704
 9.0984   1807
 9.1034   2072
 9.1084   2244
 9.1134   2527
 9.1184   2823
 9.1234   3246
 9.1284   3549
 9.1334   3863
 9.1384   4295
 9.1434   4768
 9.1484   5161
 9.1534   5556
 9.1584   6159
 9.1634   6612
 9.1684   7352
 9.1734   7767
 9.1784   8074
 9.1834   8694
 9.1884   9098
 9.1934   9783
 9.1984  10229
 9.2034  10571
 9.2084  10917
 9.2135  11180
 9.2185  11660
 9.2235  11834
 9.2285  12053
 9.2335  12112
 9.2385  12244
 9.2435  12255
 9.2485  12287
 9.2535  12121
 9.2585  12039
 9.2635  11766
 9.2685  11338
 9.2735  11086
 9.2785  10917
 9.2835  10361
 9.2885   9854
 9.2935   9319
 9.2985   9100
 9.3035   8516
 9.3085   7874
 9.3135   7491
 9.3185   6926
 9.3235   6428
 9.3285   6045
 9.3335   5443
 9.3386   5025
 9.3436   4541
 9.3486   4002
 9.3536   3683
 9.3586   3375
 9.3636   2981
 9.3686   2781
 9.3736   2560
 9.3786   2136
 9.3836   1877
 9.3886   1742
 9.3936   1497
 9.3986   1303
 9.4036   1258
 9.4086   1122
 9.4136    984
 9.4186    945
 9.4236    853
 9.4286    783
 9.4336    727
 9.4386    765
 9.4436    728
 9.4486    731
 9.4536    752
 9.4586    726
 9.4637    789
 9.4687    842
 9.4737    821
 9.4787    928
 9.4837    943
 9.4887    998
 9.4937   1067
 9.4987   1069
 9.5037   1144
 9.5087   1235
 9.5137   1261
 9.5187   1320
 9.5237   1379
 9.5287   1450
 9.5337   1478
 9.5387   1574
 9.5437   1540
 9.5487   1666
 9.5537   1679
 9.5587   1622
 9.5637   1695
 9.5687   1694
 9.5737   1695
 9.5787   1677
 9.5837   1607
 9.5888   1601
 9.5938   1579
 9.5988   1572
 9.6038   1553
 9.6088   1453
 9.6138   1407
 9.6188   1401
 9.6238   1333
 9.6288   1300
 9.6338   1159
 9.6388   1118
 9.6438   1056
 9.6488    943
 9.6538    955
 9.6588    881
 9.6638    853
 9.6688    789
 9.6738    666
 9.6788    705
 9.6838    618
 9.6888    543
 9.6938    524
 9.6988    490
 9.7038    446
 9.7088    402
 9.7139    418
 9.7189    395
 9.7239    336
 9.7289    343
 9.7339    307
 9.7389    278
 9.7439    301
 9.7489    267
 9.7539    274
 9.7589    260
 9.7639    244
 9.7689    216
 9.7739    222
 9.7789    203
 9.7839    206
 9.7889    209
 9.7939    208
 9.7989    217
 9.8039    193
 9.8089    186
 9.8139    205
 9.8189    208
 9.8239    223
 9.8289    199
 9.8339    198
  9.839    243
  9.844    233
  9.849    197
  9.854    238
  9.859    232
  9.864    212
  9.869    281
  9.874    267
  9.879    286
  9.884    287
  9.889    302
  9.894    285
  9.899    302
  9.904    328
  9.909    342
  9.914    356
  9.919    338
  9.924    428
  9.929    394
  9.934    458
  9.939    498
  9.944    487
  9.949    554
  9.954    638
  9.959    647
 9.9641    754
 9.9691    774
 9.9741    859
 9.9791    942
 9.9841    892
 9.9891   1040
 9.9941   1027
 9.9991   1132
10.0041   1264
10.0091   1218
10.0141   1370
10.0191   1390
10.0241   1462
10.0291   1515
10.0341   1590
10.0391   1642
10.0441   1738
10.0491   1765
10.0541   1807
10.0591   1903
10.0641   1945
10.0691   1893
10.0741   1998
10.0791   1982
10.0841   1967
10.0892   1997
10.0942   2005
10.0992   2004
10.1042   1991
10.1092   1942
10.1142   2010
10.1192   1883
10.1242   1906
10.1292   1811
10.1342   1804
10.1392   1852
10.1442   1794
10.1492   1813
10.1542   1760
10.1592   1713
10.1642   1687
10.1692   1604
10.1742   1768
10.1792   1694
10.1842   1622
10.1892   1837
10.1942   1759
10.1992   1772
10.2042   1846
10.2092   1720
10.2143   1772
10.2193   1819
10.2243   1857
10.2293   1822
10.2343   1885
10.2393   1854
10.2443   1936
10.2493   1867
10.2543   1879
10.2593   1910
10.2643   1795
10.2693   1828
10.2743   1802
10.2793   1779
10.2843   1760
10.2893   1730
10.2943   1659
10.2993   1617
10.3043   1542
10.3093   1597
10.3143   1516
10.3193   1552
10.3243   1392
10.3293   1439
10.3343   1341
10.3394   1261
10.3444   1239
10.3494   1162
10.3544   1099
10.3594   1121
10.3644   1057
10.3694    994
10.3744    994
10.3794    880
10.3844    901
10.3894    892
10.3944    878
10.3994    774
10.4044    803
10.4094    753
10.4144    758
10.4194    782
10.4244    726
10.4294    822
10.4344    783
10.4394    832
10.4444    814
10.4494    813
10.4544    772
10.4594    829
10.4645    852
10.4695    816
10.4745    868
10.4795    886
10.4845    890
10.4895    925
10.4945    943
10.4995    937
10.5045    968
10.5095    949
10.5145    946
10.5195    982
10.5245    992
10.5295    992
10.5345   1025
10.5395    894
10.5445    978
10.5495    960
10.5545    939
10.5595    876
10.5645    922
10.5695    935
10.5745    839
10.5795    843
10.5845    806
10.5896    808
10.5946    784
10.5996    779
10.6046    714
10.6096    716
10.6146    682
10.6196    663
10.6246    605
10.6296    594
10.6346    572
10.6396    554
10.6446    523
10.6496    515
10.6546    474
10.6596    498
10.6646    466
10.6696    427
10.6746    440
10.6796    446
10.6846    422
10.6896    406
10.6946    422
10.6996    400
10.7046    367
10.7096    398
10.7147    367
10.7197    360
10.7247    364
10.7297    348
10.7347    387
10.7397    393
10.7447    361
10.7497    338
10.7547    325
10.7597    373
10.7647    349
10.7697    363
10.7747    316
10.7797    333
10.7847    312
10.7897    331
10.7947    288
10.7997    285
10.8047    295
10.8097    308
10.8147    282
10.8197    265
10.8247    215
10.8297    253
10.8347    262
10.8398    243
10.8448    229
10.8498    248
10.8548    229
10.8598    203
10.8648    201
10.8698    195
10.8748    206
10.8798    197
10.8848    175
10.8898    176
10.8948    170
10.8998    166
10.9048    185
10.9098    154
10.9148    181
10.9198    179
10.9248    192
10.9298    189
10.9348    151
10.9398    179
10.9448    156
10.9498    141
10.9548    162
10.9598    173
10.9649    149
10.9699    130
10.9749    145
10.9799    140
10.9849    146
10.9899    183
10.9949    158
10.9999    143
11.0049    137
11.0099    148
11.0149    140
11.0199    154
11.0249    161
11.0299    155
11.0349    151
11.0399    159
11.0449    158
11.0499    164
11.0549    148
11.0599    130
11.0649    163
11.0699    151
11.0749    161
11.0799    138
11.0849    159
  11.09    142
 11.095    160
   11.1    137
 11.105    127
  11.11    148
 11.115    154
  11.12    138
 11.125    130
  11.13    180
 11.135    138
  11.14    135
 11.145    153
  11.15    154
 11.155    136
  11.16    141
 11.165    128
  11.17    133
 11.175    117
  11.18    161
 11.185    149
  11.19    138
 11.195    131
   11.2    130
 11.205    123
  11.21    134
11.2151    123
11.2201    113
11.2251    137
11.2301    139
11.2351    116
11.2401    132
11.2451    125
11.2501    132
11.2551    143
11.2601    145
11.2651    110
11.2701    119
11.2751    109
11.2801    118
11.2851    131
11.2901    117
11.2951    100
11.3001    123
11.3051    117
11.3101    123
11.3151    117
11.3201    134
11.3251    118
11.3301    116
11.3351    115
11.3402    120
11.3452    136
11.3502    123
11.3552    130
11.3602    128
11.3652    113
11.3702    118
11.3752    112
11.3802    123
11.3852    127
11.3902    122
11.3952    114
11.4002    125
11.4052    101
11.4102    119
11.4152    114
11.4202    119
11.4252    111
11.4302    123
11.4352    115
11.4402    105
11.4452    125
11.4502     99
11.4552    113
11.4602    111
11.4653    110
11.4703    127
11.4753    120
11.4803    129
11.4853    115
11.4903    116
11.4953    117
11.5003    130
11.5053    129
11.5103     99
11.5153    115
11.5203    114
11.5253     95
11.5303    116
11.5353    109
11.5403    120
11.5453    122
11.5503    154
11.5553    129
11.5603    118
11.5653    136
11.5703    123
11.5753    104
11.5803    123
11.5853    115
11.5904    146
11.5954    134
11.6004    130
11.6054    125
11.6104    124
11.6154    148
11.6204    143
11.6254    136
11.6304    148
11.6354    148
11.6404    151
11.6454    147
11.6504    144
11.6554    125
11.6604    157
11.6654    152
11.6704    171
11.6754    160
11.6804    177
11.6854    170
11.6904    162
11.6954    156
11.7004    156
11.7054    161
11.7104    170
11.7155    197
11.7205    158
11.7255    169
11.7305    169
11.7355    173
11.7405    148
11.7455    175
11.7505    182
11.7555    148
11.7605    150
11.7655    170
11.7705    163
11.7755    156
11.7805    169
11.7855    158
11.7905    147
11.7955    151
11.8005    150
11.8055    148
11.8105    152
11.8155    148
11.8205    149
11.8255    151
11.8305    134
11.8355    145
11.8406    129
11.8456    121
11.8506    144
11.8556    124
11.8606    135
11.8656    133
11.8706    151
11.8756    146
11.8806    131
11.8856    140
11.8906    143
11.8956    142
11.9006    130
11.9056    144
11.9106    137
11.9156    102
11.9206    133
11.9256    141
11.9306    151
11.9356    163
11.9406    134
11.9456    146
11.9506    149
11.9556    125
11.9606    145
11.9657    114
11.9707    117
11.9757    121
11.9807    120
11.9857    124
11.9907    106
11.9957    120
12.0007    134
12.0057    124
12.0107    130
12.0157    116
12.0207    137
12.0257    133
12.0307    133
12.0357    110
12.0407    128
12.0457     96
12.0507    128
12.0557    135
12.0607    150
12.0657    135
12.0707    135
12.0757    139
12.0807    128
12.0857    138
12.0908    137
12.0958    131
12.1008    139
12.1058    154
12.1108    132
12.1158    151
12.1208    155
12.1258    126
12.1308    124
12.1358    155
12.1408    137
12.1458    151
12.1508    142
12.1558    143
12.1608    174
12.1658    172
12.1708    177
12.1758    179
12.1808    183
12.1858    199
12.1908    201
12.1958    207
12.2008    192
12.2058    193
12.2108    186
12.2159    217
12.2209    215
12.2259    199
12.2309    201
12.2359    213
12.2409    232
12.2459    207
12.2509    227
12.2559    250
12.2609    250
12.2659    234
12.2709    238
12.2759    220
12.2809    262
12.2859    237
12.2909    287
12.2959    227
12.3009    225
12.3059    246
12.3109    250
12.3159    237
12.3209    261
12.3259    244
12.3309    253
12.3359    235
 12.341    261
 12.346    256
 12.351    234
 12.356    238
 12.361    248
 12.366    240
 12.371    244
 12.376    242
 12.381    206
 12.386    216
 12.391    193
 12.396    215
 12.401    216
 12.406    251
 12.411    226
 12.416    221
 12.421    228
 12.426    219
 12.431    216
 12.436    231
 12.441    225
 12.446    239
 12.451    228
 12.456    228
 12.461    230
12.4661    229
12.4711    230
12.4761    269
12.4811    254
12.4861    257
12.4911    267
12.4961    261
12.5011    282
12.5061    326
12.5111    360
12.5161    294
12.5211    321
12.5261    313
12.5311    382
12.5361    380
12.5411    398
12.5461    376
12.5511    397
12.5561    431
12.5611    446
12.5661    448
12.5711    495
12.5761    505
12.5811    495
12.5861    503
12.5912    476
12.5962    546
12.6012    490
12.6062    475
12.6112    571
12.6162    537
12.6212    557
12.6262    557
12.6312    506
12.6362    535
12.6412    584
12.6462    521
12.6512    566
12.6562    572
12.6612    561
12.6662    562
12.6712    564
12.6762    592
12.6812    573
12.6862    571
12.6912    604
12.6962    581
12.7012    569
12.7062    569
12.7112    567
12.7163    626
12.7213    637
12.7263    584
12.7313    638
12.7363    628
12.7413    593
12.7463    584
12.7513    641
12.7563    639
12.7613    656
12.7663    624
12.7713    612
12.7763    615
12.7813    609
12.7863    624
12.7913    642
12.7963    663
12.8013    567
12.8063    629
12.8113    602
12.8163    545
12.8213    608
12.8263    560
12.8313    615
12.8363    589
12.8414    552
12.8464    553
12.8514    567
12.8564    570
12.8614    529
12.8664    515
12.8714    495
12.8764    506
12.8814    500
12.8864    514
12.8914    482
12.8964    497
12.9014    473
12.9064    446
12.9114    466
12.9164    454
12.9214    468
12.9264    425
12.9314    458
12.9364    425
12.9414    414
12.9464    439
12.9514    432
12.9564    408
12.9614    393
12.9665    393
12.9715    439
12.9765    376
12.9815    384
12.9865    377
12.9915    384
12.9965    387
13.0015    337
13.0065    342
13.0115    362
13.0165    336
13.0215    327
13.0265    370
13.0315    317
13.0365    328
13.0415    324
13.0465    301
13.0515    321
13.0565    287
13.0615    306
13.0665    267
13.0715    294
13.0765    261
13.0815    259
13.0865    281
13.0916    304
13.0966    292
13.1016    293
13.1066    305
13.1116    306
13.1166    280
13.1216    315
13.1266    289
13.1316    343
13.1366    320
13.1416    335
13.1466    325
13.1516    325
13.1566    352
13.1616    370
13.1666    392
13.1716    406
13.1766    433
13.1816    499
13.1866    470
13.1916    541
13.1966    531
13.2016    560
13.2066    635
13.2116    636
13.2167    680
13.2217    707
13.2267    771
13.2317    821
13.2367    895
13.2417    919
13.2467   1002
13.2517   1047
13.2567   1134
13.2617   1173
13.2667   1340
13.2717   1331
13.2767   1459
13.2817   1501
13.2867   1541
13.2917   1553
13.2967   1731
13.3017   1732
13.3067   1929
13.3117   1995
13.3167   1967
13.3217   1979
13.3267   2089
13.3317   2199
13.3367   2195
13.3418   2270
13.3468   2247
13.3518   2319
13.3568   2378
13.3618   2324
13.3668   2301
13.3718   2278
13.3768   2332
13.3818   2274
13.3868   2367
13.3918   2248
13.3968   2294
13.4018   2224
13.4068   2191
13.4118   2159
13.4168   2106
13.4218   2010
13.4268   2005
13.4318   1960
13.4368   1856
13.4418   1775
13.4468   1669
13.4518   1667
13.4568   1653
13.4618   1497
13.4669   1417
13.4719   1421
13.4769   1306
13.4819   1263
13.4869   1143
13.4919   1185
13.4969   1079
13.5019   1056
13.5069    937
13.5119    928
13.5169    880
13.5219    864
13.5269    767
13.5319    743
13.5369    730
13.5419    708
13.5469    638
13.5519    628
13.5569    576
13.5619    549
13.5669    544
13.5719    570
13.5769    527
13.5819    513
13.5869    524
 13.592    486
 13.597    498
 13.602    476
 13.607    448
 13.612    450
 13.617    468
 13.622    466
 13.627    447
 13.632    424
 13.637    438
 13.642    435
 13.647    451
 13.652    437
 13.657    428
 13.662    406
 13.667    406
 13.672    424
 13.677    397
 13.682    368
 13.687    438
 13.692    392
 13.697    365
 13.702    405
 13.707    394
 13.712    398
13.7171    403
13.7221    428
13.7271    399
13.7321    419
13.7371    385
13.7421    381
13.7471    389
13.7521    410
13.7571    387
13.7621    365
13.7671    439
13.7721    411
13.7771    397
13.7821    396
13.7871    400
13.7921    412
13.7971    411
13.8021    426
13.8071    421
13.8121    437
13.8171    400
13.8221    477
13.8271    498
13.8321    495
13.8371    480
13.8422    562
13.8472    529
13.8522    520
13.8572    604
13.8622    576
13.8672    685
13.8722    758
13.8772    666
13.8822    776
13.8872    894
13.8922    881
13.8972    986
13.9022   1050
13.9072   1155
13.9122   1239
13.9172   1418
13.9222   1540
13.9272   1609
13.9322   1871
13.9372   2001
13.9422   2180
13.9472   2423
13.9522   2719
13.9572   2979
13.9622   3126
13.9673   3487
13.9723   3714
13.9773   4136
13.9823   4363
13.9873   4871
13.9923   5218
13.9973   5730
14.0023   6084
14.0073   6533
14.0123   7169
14.0173   7541
14.0223   8148
14.0273   8547
14.0323   9347
14.0373   9765
14.0423  10569
14.0473  11055
14.0523  11895
14.0573  12238
14.0623  12822
14.0673  13275
14.0723  13702
14.0773  14293
14.0823  14864
14.0873  15328
14.0924  15756
14.0974  16150
14.1024  16644
14.1074  17025
14.1124  17214
14.1174  17586
14.1224  17603
14.1274  17699
14.1324  18068
14.1374  18166
14.1424  17732
14.1474  17544
14.1524  17726
14.1574  17501
14.1624  17274
14.1674  17095
14.1724  16456
14.1774  16283
14.1824  15823
14.1874  15443
14.1924  14952
14.1974  14540
14.2024  13716
14.2074  13288
14.2124  12900
14.2175  12057
14.2225  11580
14.2275  11039
14.2325  10344
14.2375   9918
14.2425   9268
14.2475   8565
14.2525   8174
14.2575   7512
14.2625   7087
14.2675   6510
14.2725   6068
14.2775   5476
14.2825   5079
14.2875   4674
14.2925   4282
14.2975   3859
14.3025   3586
14.3075   3232
14.3125   2950
14.3175   2778
14.3225   2415
14.3275   2226
14.3325   1949
14.3375   1911
14.3426   1603
14.3476   1574
14.3526   1440
14.3576   1269
14.3626   1199
14.3676   1079
14.3726   1023
14.3776    980
14.3826    856
14.3876    857
14.3926    778
14.3976    741
14.4026    729
14.4076    712
14.4126    676
14.4176    614
14.4226    631
14.4276    623
14.4326    630
14.4376    623
14.4426    621
14.4476    607
14.4526    598
14.4576    609
14.4626    561
14.4677    559
14.4727    567
14.4777    569
14.4827    578
14.4877    559
14.4927    572
14.4977    561
14.5027    571
14.5077    542
14.5127    615
14.5177    577
14.5227    580
14.5277    560
14.5327    620
14.5377    600
14.5427    645
14.5477    599
14.5527    620
14.5577    645
14.5627    589
14.5677    589
14.5727    645
14.5777    680
14.5827    615
14.5877    615
14.5928    641
14.5978    656
14.6028    706
14.6078    658
14.6128    638
14.6178    638
14.6228    717
14.6278    660
14.6328    674
14.6378    640
14.6428    718
14.6478    704
14.6528    727
14.6578    699
14.6628    689
14.6678    715
14.6728    731
14.6778    750
14.6828    758
14.6878    714
14.6928    789
14.6978    807
14.7028    772
14.7078    800
14.7128    856
14.7179    901
14.7229    881
14.7279    896
14.7329    895
14.7379    896
14.7429    955
14.7479    953
14.7529    970
14.7579    986
14.7629   1015
14.7679   1009
14.7729   1095
14.7779   1089
14.7829   1094
14.7879   1144
14.7929   1087
14.7979   1161
14.8029   1285
14.8079   1316
14.8129   1318
14.8179   1409
14.8229   1380
14.8279   1425
14.8329   1438
14.8379   1480
 14.843   1508
 14.848   1578
 14.853   1602
 14.858   1583
 14.863   1681
 14.868   1678
 14.873   1713
 14.878   1775
 14.883   1800
 14.888   1794
 14.893   1870
 14.898   1866
 14.903   1976
 14.908   1973
 14.913   1949
 14.918   1980
 14.923   2006
 14.928   1995
 14.933   1930
 14.938   2075
 14.943   2039
 14.948   2013
 14.953   2016
 14.958   1992
 14.963   2096
14.9681   2113
14.9731   2004
14.9781   2051
14.9831   1995
14.9881   2021
14.9931   1928
14.9981   1928
15.0031   1922
15.0081   1848
15.0131   1816
15.0181   1865
15.0231   1835
15.0281   1749
15.0331   1779
15.0381   1824
15.0431   1788
15.0481   1627
15.0531   1632
15.0581   1671
15.0631   1627
15.0681   1662
15.0731   1642
15.0781   1613
15.0831   1513
15.0881   1528
15.0932   1507
15.0982   1588
15.1032   1551
15.1082   1467
15.1132   1450
15.1182   1505
15.1232   1441
15.1282   1568
15.1332   1568
15.1382   1453
15.1432   1489
15.1482   1530
15.1532   1539
15.1582   1527
15.1632   1532
15.1682   1490
15.1732   1506
15.1782   1608
15.1832   1565
15.1882   1536
15.1932   1562
15.1982   1588
15.2032   1523
15.2082   1613
15.2132   1602
15.2183   1648
15.2233   1639
15.2283   1685
15.2333   1596
15.2383   1650
15.2433   1615
15.2483   1731
15.2533   1723
15.2583   1671
15.2633   1664
15.2683   1671
15.2733   1709
15.2783   1770
15.2833   1726
15.2883   1772
15.2933   1778
15.2983   1780
15.3033   1807
15.3083   1812
15.3133   1783
15.3183   1784
15.3233   1883
15.3283   1854
15.3333   1930
15.3383   1968
15.3434   1894
15.3484   1980
15.3534   1909
15.3584   1892
15.3634   2002
15.3684   1919
15.3734   2007
15.3784   1989
15.3834   2000
15.3884   2074
15.3934   2106
15.3984   2134
15.4034   2053
15.4084   2198
15.4134   2116
15.4184   2229
15.4234   2183
15.4284   2250
15.4334   2186
15.4384   2376
15.4434   2303
15.4484   2367
15.4534   2373
15.4584   2298
15.4634   2372
15.4685   2302
15.4735   2431
15.4785   2491
15.4835   2456
15.4885   2395
15.4935   2536
15.4985   2589
15.5035   2560
15.5085   2585
15.5135   2680
15.5185   2653
15.5235   2677
15.5285   2749
15.5335   2841
15.5385   2750
15.5435   2794
15.5485   2903
15.5535   2918
15.5585   2951
15.5635   2975
15.5685   2933
15.5735   3038
15.5785   3105
15.5835   3180
15.5885   3182
15.5936   3209
15.5986   3323
15.6036   3332
15.6086   3389
15.6136   3487
15.6186   3558
15.6236   3524
15.6286   3559
15.6336   3737
15.6386   3839
15.6436   3826
15.6486   3921
15.6536   3947
15.6586   3955
15.6636   4150
15.6686   4323
15.6736   4407
15.6786   4325
15.6836   4539
15.6886   4749
15.6936   4709
15.6986   4840
15.7036   4953
15.7086   5134
15.7136   5233
15.7187   5151
15.7237   5580
15.7287   5611
15.7337   5636
15.7387   5708
15.7437   5985
15.7487   5968
15.7537   5973
15.7587   6277
15.7637   6424
15.7687   6338
15.7737   6505
15.7787   6666
15.7837   6778
15.7887   6839
15.7937   6873
15.7987   7071
15.8037   6989
15.8087   7061
15.8137   7254
15.8187   7130
15.8237   7213
15.8287   7282
15.8337   7336
15.8387   7170
15.8438   7277
15.8488   7384
15.8538   7377
15.8588   7431
15.8638   7402
15.8688   7315
15.8738   7284
15.8788   7422
15.8838   7357
15.8888   7232
15.8938   7117
15.8988   7134
15.9038   7303
15.9088   7289
15.9138   7201
15.9188   7182
15.9238   7176
15.9288   7106
15.9338   7007
15.9388   7403
15.9438   7196
15.9488   7425
15.9538   7202
15.9588   7172
15.9638   7346
15.9689   7151
15.9739   7316
15.9789   7333
15.9839   7480
15.9889   7504
15.9939   7485
15.9989   7513
16.0039   7677
16.0089   7830
16.0139   7893
16.0189   8074
16.0239   7971
16.0289   8185
16.0339   8178
16.0389   8261
16.0439   8403
16.0489   8544
16.0539   8534
16.0589   8886
16.0639   8817
16.0689   8974
16.0739   9294
16.0789   9475
16.0839   9638
16.0889   9846
 16.094   9946
 16.099  10010
 16.104  10515
 16.109  10413
 16.114  10492
 16.119  10616
 16.124  10936
 16.129  11451
 16.134  11337
 16.139  11507
 16.144  11653
 16.149  11768
 16.154  12116
 16.159  12352
 16.164  12532
 16.169  12605
 16.174  12922
 16.179  13313
 16.184  13572
 16.189  13501
 16.194  14005
 16.199  14260
 16.204  14406
 16.209  14605
 16.214  14792
16.2191  15407
16.2241  15362
16.2291  15761
16.2341  16267
16.2391  16596
16.2441  16798
16.2491  17237
16.2541  17588
16.2591  17816
16.2641  18241
16.2691  18394
16.2741  18734
16.2791  19221
16.2841  19663
16.2891  19852
16.2941  20254
16.2991  20715
16.3041  21205
16.3091  21412
16.3141  22092
16.3191  22377
16.3241  22749
16.3291  22951
16.3341  23409
16.3391  24283
16.3442  24394
16.3492  24680
16.3542  25163
16.3592  25452
16.3642  26170
16.3692  26640
16.3742  27307
16.3792  27173
16.3842  27793
16.3892  28784
16.3942  28823
16.3992  29320
16.4042  29809
16.4092  29980
16.4142  30442
16.4192  31055
16.4242  31781
16.4292  32209
16.4342  32766
16.4392  33011
16.4442  33534
16.4492  33990
16.4542  34281
16.4592  35214
16.4642  35297
16.4693  36049
16.4743  36322
16.4793  36770
16.4843  37199
16.4893  37751
16.4943  38240
16.4993  38651
16.5043  39240
16.5093  39492
16.5143  39746
16.5193  40115
16.5243  40919
16.5293  41091
16.5343  41806
16.5393  41921
16.5443  42818
16.5493  43232
16.5543  43442
16.5593  43731
16.5643  44337
16.5693  44912
16.5743  45067
16.5793  45683
16.5843  45527
16.5893  46213
16.5944  46671
16.5994  46353
16.6044  47010
16.6094  47664
16.6144  47986
16.6194  48370
16.6244  48378
16.6294  49201
16.6344  49149
16.6394  49913
16.6444  49109
16.6494  50002
16.6544  49815
16.6594  50437
16.6644  50960
16.6694  50372
16.6744  51159
16.6794  51277
16.6844  51409
16.6894  51644
16.6944  51872
16.6994  52487
16.7044  52619
16.7094  52633
16.7144  52740
16.7195  53073
16.7245  53074
16.7295  53094
16.7345  53036
16.7395  52934
16.7445  53298
16.7495  53372
16.7545  53309
16.7595  53204
16.7645  53715
16.7695  53402
16.7745  53378
16.7795  53591
16.7845  53926
16.7895  53611
16.7945  53759
16.7995  53868
16.8045  53684
16.8095  54123
16.8145  53733
16.8195  54175
16.8245  53573
16.8295  54036
16.8345  53827
16.8395  53264
16.8446  53936
16.8496  53779
16.8546  53719
16.8596  53500
16.8646  53158
16.8696  53013
16.8746  53147
16.8796  53122
16.8846  53077
16.8896  52858
16.8946  53043
16.8996  52175
16.9046  52491
16.9096  52188
16.9146  52289
16.9196  52103
16.9246  52035
16.9296  52284
16.9346  51675
16.9396  51572
16.9446  51576
16.9496  51138
16.9546  50727
16.9596  50840
16.9646  50835
16.9697  50353
16.9747  50305
16.9797  49889
16.9847  49520
16.9897  49623
16.9947  49607
16.9997  49657
17.0047  49275
17.0097  49004
17.0147  48749
17.0197  48381
17.0247  47863
17.0297  48143
17.0347  47493
17.0397  47582
17.0447  47191
17.0497  46876
17.0547  46598
17.0597  46237
17.0647  46397
17.0697  46024
17.0747  45349
17.0797  45401
17.0847  45378
17.0897  44734
17.0948  44367
17.0998  44027
17.1048  43723
17.1098  43830
17.1148  43137
17.1198  43653
17.1248  42713
17.1298  43002
17.1348  42592
17.1398  42585
17.1448  42205
17.1498  42017
17.1548  41702
17.1598  41930
17.1648  41662
17.1698  41915
17.1748  41963
17.1798  41438
17.1848  41823
17.1898  42314
17.1948  42230
17.1998  42638
17.2048  42564
17.2098  43281
17.2148  43291
17.2199  43846
17.2249  44654
17.2299  45295
17.2349  45699
17.2399  46658
17.2449  47452
17.2499  48354
17.2549  49417
17.2599  49911
17.2649  51479
17.2699  52966
17.2749  53714
17.2799  55405
17.2849  57086
17.2899  58587
17.2949  59704
17.2999  61391
17.3049  62528
17.3099  64869
17.3149  65964
17.3199  68201
17.3249  69538
17.3299  71764
17.3349  73650
17.3399  75487
 17.345  77282
  17.35  78862
 17.355  80180
  17.36  81857
 17.365  84389
  17.37  85304
 17.375  87053
  17.38  88338
 17.385  89917
  17.39  91389
 17.395  92261
   17.4  93904
 17.405  94342
  17.41  95116
 17.415  95864
  17.42  96523
 17.425  96863
  17.43  96606
 17.435  96474
  17.44  96190
 17.445  95961
  17.45  95424
 17.455  95240
  17.46  93989
 17.465  92681
17.4701  91543
17.4751  90162
17.4801  88855
17.4851  86320
17.4901  84509
17.4951  82472
17.5001  80252
17.5051  78252
17.5101  75787
17.5151  73637
17.5201  70235
17.5251  68109
17.5301  65159
17.5351  62649
17.5401  59313
17.5451  57462
17.5501  54497
17.5551  51675
17.5601  48657
17.5651  46133
17.5701  43952
17.5751  40833
17.5801  38308
17.5851  36162
17.5901  33663
17.5952  31779
17.6002  29456
17.6052  27056
17.6102  25360
17.6152  23520
17.6202  21863
17.6252  19927
17.6302  18558
17.6352  17209
17.6402  15807
17.6452  14580
17.6502  13404
17.6552  12272
17.6602  11042
17.6652  10505
17.6702   9719
17.6752   8913
17.6802   8249
17.6852   7595
17.6902   6932
17.6952   6426
17.7002   6033
17.7052   5697
17.7102   5246
17.7152   4797
17.7203   4479
17.7253   4327
17.7303   4098
17.7353   3954
17.7403   3697
17.7453   3461
17.7503   3400
17.7553   3138
17.7603   3052
17.7653   3008
17.7703   2769
17.7753   2685
17.7803   2693
17.7853   2635
17.7903   2410
17.7953   2568
17.8003   2349
17.8053   2294
17.8103   2200
17.8153   2248
17.8203   2139
17.8253   2102
17.8303   2140
17.8353   2068
17.8403   1993
17.8454   1995
17.8504   1913
17.8554   1808
17.8604   1941
17.8654   1748
17.8704   1867
17.8754   1755
17.8804   1678
17.8854   1698
17.8904   1633
17.8954   1616
17.9004   1568
17.9054   1504
17.9104   1525
17.9154   1426
17.9204   1469
17.9254   1440
17.9304   1391
17.9354   1413
17.9404   1324
17.9454   1367
17.9504   1277
17.9554   1280
17.9604   1239
17.9654   1207
17.9705   1211
17.9755   1126
17.9805   1153
17.9855   1060
17.9905   1085
17.9955   1079
18.0005   1045
18.0055   1044
18.0105   1022
18.0155    985
18.0205    942
18.0255    925
18.0305    932
18.0355    933
18.0405    901
18.0455    867
18.0505    844
18.0555    821
18.0605    812
18.0655    809
18.0705    798
18.0755    773
18.0805    736
18.0855    712
18.0905    743
18.0956    691
18.1006    719
18.1056    710
18.1106    687
18.1156    662
18.1206    665
18.1256    622
18.1306    639
18.1356    616
18.1406    608
18.1456    587
18.1506    584
18.1556    579
18.1606    536
18.1656    559
18.1706    526
18.1756    531
18.1806    541
18.1856    521
18.1906    529
18.1956    523
18.2006    461
18.2056    507
18.2106    457
18.2156    474
18.2207    432
18.2257    456
18.2307    416
18.2357    419
18.2407    382
18.2457    397
18.2507    356
18.2557    412
18.2607    385
18.2657    380
18.2707    403
18.2757    366
18.2807    326
18.2857    344
18.2907    363
18.2957    345
18.3007    344
18.3057    323
18.3107    332
18.3157    302
18.3207    345
18.3257    300
18.3307    309
18.3357    285
18.3407    289
18.3458    280
18.3508    283
18.3558    294
18.3608    260
18.3658    278
18.3708    260
18.3758    257
18.3808    237
18.3858    261
18.3908    251
18.3958    240
18.4008    247
18.4058    227
18.4108    280
18.4158    227
18.4208    210
18.4258    226
18.4308    207
18.4358    220
18.4408    217
18.4458    226
18.4508    221
18.4558    226
18.4608    213
18.4658    220
18.4709    178
18.4759    197
18.4809    197
18.4859    233
18.4909    227
18.4959    191
18.5009    209
18.5059    204
18.5109    189
18.5159    199
18.5209    195
18.5259    194
18.5309    181
18.5359    170
18.5409    191
18.5459    188
18.5509    191
18.5559    192
18.5609    154
18.5659    170
18.5709    182
18.5759    180
18.5809    185
18.5859    177
18.5909    178
 18.596    154
 18.601    148
 18.606    154
 18.611    161
 18.616    161
 18.621    167
 18.626    144
 18.631    163
 18.636    163
 18.641    157
 18.646    167
 18.651    152
 18.656    164
 18.661    157
 18.666    156
 18.671    142
 18.676    152
 18.681    149
 18.686    150
 18.691    141
 18.696    146
 18.701    158
 18.706    130
 18.711    135
 18.716    142
18.7211    160
18.7261    126
18.7311    147
18.7361    156
18.7411    142
18.7461    148
18.7511    140
18.7561    133
18.7611    124
18.7661    118
18.7711    126
18.7761    145
18.7811    143
18.7861    127
18.7911    152
18.7961    142
18.8011    128
18.8061    111
18.8111    126
18.8161    137
18.8211    122
18.8261    130
18.8311    136
18.8361    115
18.8411    135
18.8462    129
18.8512    120
18.8562    132
18.8612    107
18.8662    116
18.8712     98
18.8762    142
18.8812    116
18.8862    114
18.8912    129
18.8962     98
18.9012    108
18.9062    131
18.9112    120
18.9162    124
18.9212    103
18.9262    119
18.9312    143
18.9362    128
18.9412    123
18.9462    107
18.9512    132
18.9562    101
18.9612    109
18.9662    122
18.9713    116
18.9763    107
18.9813    127
18.9863    116
18.9913    111
18.9963    112
19.0013    121
19.0063    115
19.0113     97
19.0163    100
19.0213    108
19.0263    122
19.0313    110
19.0363    104
19.0413    112
19.0463    111
19.0513    131
19.0563    114
19.0613    111
19.0663    119
19.0713    106
19.0763    101
19.0813    105
19.0863    102
19.0913    110
19.0964     95
19.1014    129
19.1064    108
19.1114    109
19.1164    111
19.1214    100
19.1264    112
19.1314    113
19.1364    119
19.1414    114
19.1464    117
19.1514    118
19.1564    117
19.1614     98
19.1664    110
19.1714    115
19.1764    110
19.1814    111
19.1864    130
19.1914    126
19.1964    121
19.2014    104
19.2064    103
19.2114    110
19.2164     96
19.2215     98
19.2265    106
19.2315    112
19.2365    107
19.2415    102
19.2465    104
19.2515    109
19.2565    109
19.2615     89
19.2665    109
19.2715    111
19.2765     91
19.2815    118
19.2865     90
19.2915    117
19.2965    102
19.3015    110
19.3065    106
19.3115    109
19.3165    113
19.3215    100
19.3265    114
19.3315    120
19.3365    106
19.3415    108
19.3466    110
19.3516    110
19.3566    111
19.3616    106
19.3666    117
19.3716    112
19.3766    119
19.3816    123
19.3866    124
19.3916    118
19.3966    115
19.4016    126
19.4066    119
19.4116    119
19.4166    122
19.4216    124
19.4266    127
19.4316    110
19.4366    112
19.4416    121
19.4466    142
19.4516    140
19.4566    156
19.4616    135
19.4666    112
19.4717    123
19.4767    134
19.4817    141
19.4867    147
19.4917    131
19.4967    158
19.5017    131
19.5067    137
19.5117    131
19.5167    159
19.5217    162
19.5267    122
19.5317    143
19.5367    156
19.5417    141
19.5467    140
19.5517    136
19.5567    152
19.5617    149
19.5667    158
19.5717    154
19.5767    157
19.5817    152
19.5867    173
19.5917    132
19.5968    152
19.6018    153
19.6068    153
19.6118    153
19.6168    144
19.6218    144
19.6268    149
19.6318    160
19.6368    150
19.6418    152
19.6468    154
19.6518    126
19.6568    136
19.6618    142
19.6668    150
19.6718    148
19.6768    139
19.6818    150
19.6868    154
19.6918    158
19.6968    141
19.7018    140
19.7068    143
19.7118    150
19.7168    150
19.7219    150
19.7269    157
19.7319    165
19.7369    168
19.7419    133
19.7469    143
19.7519    152
19.7569    154
19.7619    170
19.7669    162
19.7719    133
19.7769    157
19.7819    174
19.7869    157
19.7919    149
19.7969    165
19.8019    172
19.8069    155
19.8119    146
19.8169    151
19.8219    156
19.8269    177
19.8319    178
19.8369    168
19.8419    171
 19.847    191
 19.852    178
 19.857    180
 19.862    187
 19.867    185
 19.872    174
 19.877    181
 19.882    208
 19.887    179
 19.892    181
 19.897    215
 19.902    207
 19.907    233
 19.912    212
 19.917    199
 19.922    208
 19.927    210
 19.932    234
 19.937    209
 19.942    250
 19.947    233
 19.952    237
 19.957    233
 19.962    227
 19.967    247
19.9721    217
19.9771    264
19.9821    252
19.9871    234
19.9921    253
19.9971    241
20.0021    290
20.0071    280
