RÖNTEC GmbH Berlin, Germany
Quantax 1.2

Date: 3/19/2019 10:43:42 AM
Real time: 794523
Life time: 600001
Pulse density: 94031


Detector type: XFLASH
Window type: 
Detector thickness: 0.45
Si dead layer:0

Calibration, lin.: 5.004
Calibration, abs.: -484.3
Mn FWHM: 135.26
Fano factor: 0.11
Channels: 4096

Energy Counts
-0.4843      0
-0.4793      0
-0.4743      0
-0.4693      0
-0.4643      0
-0.4593      0
-0.4543      0
-0.4493      0
-0.4443      0
-0.4393      0
-0.4343      0
-0.4293      0
-0.4243      0
-0.4192      0
-0.4142      0
-0.4092      0
-0.4042      0
-0.3992      0
-0.3942      0
-0.3892      0
-0.3842      0
-0.3792      0
-0.3742      0
-0.3692      0
-0.3642      0
-0.3592      0
-0.3542      0
-0.3492      0
-0.3442      0
-0.3392      0
-0.3342      0
-0.3292      0
-0.3242      0
-0.3192      0
-0.3142      0
-0.3092      0
-0.3042      0
-0.2992      0
-0.2941      0
-0.2891      0
-0.2841      0
-0.2791      0
-0.2741      0
-0.2691      0
-0.2641      0
-0.2591      0
-0.2541      0
-0.2491      0
-0.2441      0
-0.2391      0
-0.2341      0
-0.2291      0
-0.2241      0
-0.2191      0
-0.2141      0
-0.2091      0
-0.2041      0
-0.1991      0
-0.1941      0
-0.1891      0
-0.1841      0
-0.1791      0
-0.1741      0
 -0.169      0
 -0.164      0
 -0.159      0
 -0.154      1
 -0.149      2
 -0.144      1
 -0.139      3
 -0.134      7
 -0.129     14
 -0.124     36
 -0.119     78
 -0.114    161
 -0.109    321
 -0.104    572
 -0.099   1164
 -0.094   2095
 -0.089   3707
 -0.084   6374
 -0.079  10372
 -0.074  16426
 -0.069  25611
 -0.064  38186
 -0.059  55336
 -0.054  77960
 -0.049 106851
-0.0439 140436
-0.0389 180494
-0.0339 224440
-0.0289 269849
-0.0239 315323
-0.0189 355225
-0.0139 388188
-0.0089 410558
-0.0039 422521
 0.0011 419111
 0.0061 405923
 0.0111 378921
 0.0161 342410
 0.0211 299955
 0.0261 255947
 0.0311 211392
 0.0361 169419
 0.0411 132191
 0.0461  98848
 0.0511  73046
 0.0561  52102
 0.0611  35887
 0.0661  24163
 0.0711  16183
 0.0761  10188
 0.0812   6381
 0.0862   4127
 0.0912   2643
 0.0962   1743
 0.1012   1141
 0.1062    787
 0.1112    600
 0.1162    460
 0.1212    413
 0.1262    361
 0.1312    313
 0.1362    254
 0.1412    289
 0.1462    234
 0.1512    231
 0.1562    220
 0.1612    172
 0.1662    157
 0.1712    131
 0.1762    123
 0.1812    104
 0.1862    101
 0.1912     92
 0.1962     82
 0.2012     87
 0.2063     68
 0.2113     64
 0.2163     71
 0.2213     68
 0.2263     55
 0.2313     55
 0.2363     54
 0.2413     45
 0.2463     29
 0.2513     29
 0.2563     29
 0.2613     25
 0.2663     23
 0.2713     16
 0.2763     19
 0.2813     18
 0.2863     17
 0.2913     15
 0.2963     14
 0.3013     12
 0.3063     17
 0.3113     13
 0.3163     11
 0.3213     33
 0.3263     34
 0.3314     50
 0.3364    124
 0.3414    279
 0.3464    835
 0.3514   1848
 0.3564   2795
 0.3614   3563
 0.3664   3735
 0.3714   3904
 0.3764   3827
 0.3814   3783
 0.3864   3702
 0.3914   3731
 0.3964   3837
 0.4014   3772
 0.4064   3696
 0.4114   3608
 0.4164   3652
 0.4214   3570
 0.4264   3554
 0.4314   3581
 0.4364   3422
 0.4414   3413
 0.4464   3429
 0.4514   3378
 0.4565   3403
 0.4615   3380
 0.4665   3395
 0.4715   3194
 0.4765   3237
 0.4815   3282
 0.4865   3310
 0.4915   3206
 0.4965   3182
 0.5015   3232
 0.5065   3216
 0.5115   3205
 0.5165   3180
 0.5215   3303
 0.5265   3129
 0.5315   3147
 0.5365   3240
 0.5415   3283
 0.5465   3130
 0.5515   3148
 0.5565   3180
 0.5615   3068
 0.5665   3095
 0.5715   3067
 0.5765   2992
 0.5816   2999
 0.5866   3017
 0.5916   2959
 0.5966   3070
 0.6016   2966
 0.6066   2896
 0.6116   2932
 0.6166   2861
 0.6216   2887
 0.6266   2797
 0.6316   2913
 0.6366   2804
 0.6416   2820
 0.6466   2718
 0.6516   2811
 0.6566   2772
 0.6616   2657
 0.6666   2730
 0.6716   2730
 0.6766   2716
 0.6816   2724
 0.6866   2709
 0.6916   2688
 0.6966   2692
 0.7016   2713
 0.7067   2720
 0.7117   2636
 0.7167   2679
 0.7217   2667
 0.7267   2616
 0.7317   2682
 0.7367   2658
 0.7417   2649
 0.7467   2662
 0.7517   2572
 0.7567   2595
 0.7617   2566
 0.7667   2562
 0.7717   2512
 0.7767   2575
 0.7817   2524
 0.7867   2705
 0.7917   2542
 0.7967   2606
 0.8017   2536
 0.8067   2545
 0.8117   2552
 0.8167   2528
 0.8217   2509
 0.8267   2454
 0.8318   2479
 0.8368   2501
 0.8418   2471
 0.8468   2530
 0.8518   2468
 0.8568   2539
 0.8618   2464
 0.8668   2436
 0.8718   2430
 0.8768   2464
 0.8818   2447
 0.8868   2522
 0.8918   2300
 0.8968   2443
 0.9018   2411
 0.9068   2470
 0.9118   2446
 0.9168   2485
 0.9218   2330
 0.9268   2527
 0.9318   2452
 0.9368   2416
 0.9418   2365
 0.9468   2349
 0.9518   2411
 0.9569   2361
 0.9619   2311
 0.9669   2332
 0.9719   2341
 0.9769   2338
 0.9819   2376
 0.9869   2357
 0.9919   2299
 0.9969   2363
 1.0019   2293
 1.0069   2343
 1.0119   2286
 1.0169   2307
 1.0219   2310
 1.0269   2195
 1.0319   2276
 1.0369   2315
 1.0419   2290
 1.0469   2276
 1.0519   2328
 1.0569   2240
 1.0619   2207
 1.0669   2328
 1.0719   2266
 1.0769   2206
  1.082   2217
  1.087   2300
  1.092   2294
  1.097   2203
  1.102   2285
  1.107   2226
  1.112   2265
  1.117   2213
  1.122   2233
  1.127   2210
  1.132   2171
  1.137   2189
  1.142   2152
  1.147   2201
  1.152   2191
  1.157   2138
  1.162   2195
  1.167   2055
  1.172   2127
  1.177   2174
  1.182   2197
  1.187   2082
  1.192   2122
  1.197   2089
  1.202   2159
 1.2071   2171
 1.2121   2081
 1.2171   2133
 1.2221   2144
 1.2271   2154
 1.2321   2211
 1.2371   2277
 1.2421   2189
 1.2471   2183
 1.2521   2226
 1.2571   2152
 1.2621   2173
 1.2671   2187
 1.2721   2131
 1.2771   2127
 1.2821   2178
 1.2871   2077
 1.2921   2069
 1.2971   2048
 1.3021   2053
 1.3071   1993
 1.3121   1990
 1.3171   2026
 1.3221   1954
 1.3271   2034
 1.3322   2017
 1.3372   1996
 1.3422   1949
 1.3472   1927
 1.3522   1929
 1.3572   1961
 1.3622   1966
 1.3672   1999
 1.3722   1919
 1.3772   1926
 1.3822   1952
 1.3872   1938
 1.3922   2071
 1.3972   2067
 1.4022   2135
 1.4072   2147
 1.4122   2246
 1.4172   2368
 1.4222   2470
 1.4272   2540
 1.4322   2672
 1.4372   2954
 1.4422   3085
 1.4472   3153
 1.4522   3487
 1.4573   3652
 1.4623   3969
 1.4673   4071
 1.4723   4190
 1.4773   4310
 1.4823   4358
 1.4873   4441
 1.4923   4289
 1.4973   4213
 1.5023   4299
 1.5073   4103
 1.5123   4072
 1.5173   3835
 1.5223   3723
 1.5273   3553
 1.5323   3472
 1.5373   3229
 1.5423   3058
 1.5473   2922
 1.5523   2811
 1.5573   2726
 1.5623   2555
 1.5673   2560
 1.5723   2426
 1.5773   2471
 1.5824   2410
 1.5874   2294
 1.5924   2194
 1.5974   2276
 1.6024   2108
 1.6074   2202
 1.6124   2067
 1.6174   2151
 1.6224   2081
 1.6274   2159
 1.6324   2128
 1.6374   2221
 1.6424   2364
 1.6474   2403
 1.6524   2568
 1.6574   2776
 1.6624   3043
 1.6674   3412
 1.6724   3680
 1.6774   3946
 1.6824   4620
 1.6874   5120
 1.6924   5763
 1.6974   6477
 1.7024   7064
 1.7075   7754
 1.7125   8438
 1.7175   8992
 1.7225   9378
 1.7275   9682
 1.7325  10358
 1.7375  10344
 1.7425  10597
 1.7475  10496
 1.7525  10321
 1.7575  10081
 1.7625   9789
 1.7675   9176
 1.7725   8607
 1.7775   8099
 1.7825   7635
 1.7875   7047
 1.7925   6358
 1.7975   5952
 1.8025   5421
 1.8075   5037
 1.8125   4538
 1.8175   4390
 1.8225   4259
 1.8275   4147
 1.8326   3954
 1.8376   3950
 1.8426   3821
 1.8476   3873
 1.8526   3812
 1.8576   4106
 1.8626   4251
 1.8676   4454
 1.8726   4761
 1.8776   5171
 1.8826   5481
 1.8876   6028
 1.8926   6598
 1.8976   7060
 1.9026   7938
 1.9076   8408
 1.9126   9149
 1.9176   9741
 1.9226  10249
 1.9276  11059
 1.9326  11295
 1.9376  11710
 1.9426  12026
 1.9476  12131
 1.9526  12038
 1.9577  12040
 1.9627  11748
 1.9677  11311
 1.9727  10646
 1.9777  10204
 1.9827   9652
 1.9877   9071
 1.9927   8107
 1.9977   7561
 2.0027   6817
 2.0077   6155
 2.0127   5556
 2.0177   5190
 2.0227   4761
 2.0277   4243
 2.0327   4022
 2.0377   3763
 2.0427   3402
 2.0477   3353
 2.0527   3055
 2.0577   2958
 2.0627   2962
 2.0677   2751
 2.0727   2771
 2.0777   2576
 2.0828   2560
 2.0878   2605
 2.0928   2498
 2.0978   2416
 2.1028   2532
 2.1078   2503
 2.1128   2428
 2.1178   2458
 2.1228   2463
 2.1278   2388
 2.1328   2380
 2.1378   2399
 2.1428   2413
 2.1478   2324
 2.1528   2383
 2.1578   2438
 2.1628   2398
 2.1678   2423
 2.1728   2433
 2.1778   2514
 2.1828   2510
 2.1878   2576
 2.1928   2567
 2.1978   2677
 2.2028   2792
 2.2079   2987
 2.2129   2917
 2.2179   3110
 2.2229   3432
 2.2279   3559
 2.2329   3821
 2.2379   4105
 2.2429   4477
 2.2479   4821
 2.2529   5070
 2.2579   5292
 2.2629   5803
 2.2679   6186
 2.2729   6590
 2.2779   6799
 2.2829   7148
 2.2879   7409
 2.2929   7593
 2.2979   7776
 2.3029   7768
 2.3079   7913
 2.3129   7857
 2.3179   7607
 2.3229   7343
 2.3279   7201
  2.333   6919
  2.338   6471
  2.343   6107
  2.348   5672
  2.353   5529
  2.358   5035
  2.363   4684
  2.368   4296
  2.373   3903
  2.378   3669
  2.383   3452
  2.388   3268
  2.393   2899
  2.398   2859
  2.403   2639
  2.408   2573
  2.413   2503
  2.418   2444
  2.423   2331
  2.428   2439
  2.433   2305
  2.438   2307
  2.443   2391
  2.448   2347
  2.453   2333
 2.4581   2400
 2.4631   2458
 2.4681   2398
 2.4731   2337
 2.4781   2299
 2.4831   2334
 2.4881   2332
 2.4931   2310
 2.4981   2342
 2.5031   2321
 2.5081   2242
 2.5131   2213
 2.5181   2236
 2.5231   2236
 2.5281   2075
 2.5331   2142
 2.5381   2145
 2.5431   2185
 2.5481   2225
 2.5531   2110
 2.5581   2109
 2.5631   2141
 2.5681   2097
 2.5731   2155
 2.5781   2225
 2.5832   2218
 2.5882   2214
 2.5932   2162
 2.5982   2207
 2.6032   2216
 2.6082   2185
 2.6132   2228
 2.6182   2336
 2.6232   2283
 2.6282   2276
 2.6332   2210
 2.6382   2282
 2.6432   2223
 2.6482   2264
 2.6532   2227
 2.6582   2239
 2.6632   2116
 2.6682   2121
 2.6732   2253
 2.6782   2183
 2.6832   2252
 2.6882   2158
 2.6932   2218
 2.6982   2160
 2.7032   2267
 2.7083   2173
 2.7133   2249
 2.7183   2342
 2.7233   2240
 2.7283   2185
 2.7333   2239
 2.7383   2232
 2.7433   2219
 2.7483   2233
 2.7533   2176
 2.7583   2207
 2.7633   2178
 2.7683   2304
 2.7733   2298
 2.7783   2238
 2.7833   2255
 2.7883   2253
 2.7933   2283
 2.7983   2343
 2.8033   2346
 2.8083   2312
 2.8133   2233
 2.8183   2268
 2.8233   2217
 2.8283   2236
 2.8334   2295
 2.8384   2300
 2.8434   2309
 2.8484   2275
 2.8534   2352
 2.8584   2345
 2.8634   2292
 2.8684   2347
 2.8734   2405
 2.8784   2468
 2.8834   2452
 2.8884   2378
 2.8934   2484
 2.8984   2566
 2.9034   2571
 2.9084   2451
 2.9134   2691
 2.9184   2713
 2.9234   2674
 2.9284   2706
 2.9334   2803
 2.9384   2828
 2.9434   2868
 2.9484   2918
 2.9534   2813
 2.9585   2803
 2.9635   2856
 2.9685   2916
 2.9735   2904
 2.9785   2925
 2.9835   2882
 2.9885   2943
 2.9935   2898
 2.9985   2876
 3.0035   2789
 3.0085   2799
 3.0135   2736
 3.0185   2784
 3.0235   2644
 3.0285   2775
 3.0335   2818
 3.0385   2703
 3.0435   2797
 3.0485   2792
 3.0535   2635
 3.0585   2786
 3.0635   2719
 3.0685   2734
 3.0735   2841
 3.0785   2802
 3.0836   2743
 3.0886   2856
 3.0936   2811
 3.0986   2853
 3.1036   2928
 3.1086   3000
 3.1136   2883
 3.1186   2953
 3.1236   3013
 3.1286   3095
 3.1336   3023
 3.1386   3097
 3.1436   3229
 3.1486   3175
 3.1536   3207
 3.1586   3398
 3.1636   3316
 3.1686   3492
 3.1736   3477
 3.1786   3485
 3.1836   3712
 3.1886   3879
 3.1936   4040
 3.1986   4211
 3.2036   4432
 3.2087   4647
 3.2137   5025
 3.2187   5439
 3.2237   5889
 3.2287   6443
 3.2337   7059
 3.2387   7697
 3.2437   8573
 3.2487   9275
 3.2537  10325
 3.2587  11413
 3.2637  12338
 3.2687  13475
 3.2737  14561
 3.2787  15614
 3.2837  16513
 3.2887  17708
 3.2937  18751
 3.2987  19438
 3.3037  19959
 3.3087  20469
 3.3137  20726
 3.3187  21024
 3.3237  20915
 3.3287  20324
 3.3338  20184
 3.3388  19358
 3.3438  18391
 3.3488  17726
 3.3538  16669
 3.3588  15468
 3.3638  14572
 3.3688  13417
 3.3738  12193
 3.3788  11209
 3.3838  10382
 3.3888   9285
 3.3938   8517
 3.3988   7763
 3.4038   7060
 3.4088   6487
 3.4138   6165
 3.4188   5576
 3.4238   5236
 3.4288   5188
 3.4338   5024
 3.4388   4791
 3.4438   4913
 3.4488   4830
 3.4538   4761
 3.4589   4784
 3.4639   4885
 3.4689   5136
 3.4739   5315
 3.4789   5478
 3.4839   5704
 3.4889   6063
 3.4939   6538
 3.4989   6878
 3.5039   7373
 3.5089   7889
 3.5139   8568
 3.5189   9489
 3.5239  10425
 3.5289  11870
 3.5339  13298
 3.5389  15308
 3.5439  17547
 3.5489  20776
 3.5539  24155
 3.5589  28878
 3.5639  34714
 3.5689  41143
 3.5739  49977
 3.5789  60591
  3.584  72793
  3.589  87710
  3.594 104959
  3.599 126344
  3.604 149875
  3.609 178127
  3.614 208237
  3.619 242829
  3.624 280728
  3.629 322141
  3.634 365888
  3.639 412066
  3.644 460217
  3.649 508248
  3.654 555028
  3.659 602181
  3.664 644332
  3.669 685011
  3.674 718614
  3.679 748950
  3.684 770202
  3.689 785524
  3.694 792083
  3.699 790685
  3.704 780905
 3.7091 763002
 3.7141 738340
 3.7191 709013
 3.7241 669753
 3.7291 628821
 3.7341 584224
 3.7391 537297
 3.7441 487956
 3.7491 440900
 3.7541 391575
 3.7591 346530
 3.7641 302900
 3.7691 262209
 3.7741 224138
 3.7791 190988
 3.7841 161430
 3.7891 133889
 3.7941 110344
 3.7991  90829
 3.8041  74494
 3.8091  60749
 3.8141  48959
 3.8191  39184
 3.8241  31837
 3.8291  25631
 3.8342  20820
 3.8392  17222
 3.8442  14307
 3.8492  12337
 3.8542  10858
 3.8592  10036
 3.8642   9396
 3.8692   9273
 3.8742   9288
 3.8792   9597
 3.8842  10233
 3.8892  10807
 3.8942  12019
 3.8992  13332
 3.9042  14943
 3.9092  16696
 3.9142  19034
 3.9192  21607
 3.9242  24204
 3.9292  27775
 3.9342  31684
 3.9392  35414
 3.9442  39944
 3.9492  45231
 3.9542  50661
 3.9593  55563
 3.9643  61699
 3.9693  67396
 3.9743  72924
 3.9793  78840
 3.9843  83732
 3.9893  89496
 3.9943  92933
 3.9993  96830
 4.0043 100089
 4.0093 102546
 4.0143 103711
 4.0193 104101
 4.0243 102859
 4.0293 101877
 4.0343  98921
 4.0393  95347
 4.0443  92002
 4.0493  86983
 4.0543  81453
 4.0593  76291
 4.0643  70193
 4.0693  64027
 4.0743  58138
 4.0793  52306
 4.0844  46051
 4.0894  40879
 4.0944  35852
 4.0994  31336
 4.1044  26636
 4.1094  22931
 4.1144  19511
 4.1194  16668
 4.1244  13769
 4.1294  11622
 4.1344   9563
 4.1394   8118
 4.1444   6597
 4.1494   5424
 4.1544   4568
 4.1594   3794
 4.1644   3234
 4.1694   2765
 4.1744   2324
 4.1794   2059
 4.1844   1828
 4.1894   1657
 4.1944   1550
 4.1994   1404
 4.2044   1302
 4.2095   1238
 4.2145   1225
 4.2195   1177
 4.2245   1138
 4.2295   1094
 4.2345   1146
 4.2395   1094
 4.2445   1089
 4.2495   1109
 4.2545   1056
 4.2595   1029
 4.2645   1116
 4.2695   1107
 4.2745   1076
 4.2795   1050
 4.2845   1011
 4.2895   1008
 4.2945   1037
 4.2995   1014
 4.3045   1066
 4.3095   1041
 4.3145   1086
 4.3195    999
 4.3245   1070
 4.3295   1071
 4.3346   1022
 4.3396   1159
 4.3446   1128
 4.3496   1218
 4.3546   1214
 4.3596   1305
 4.3646   1364
 4.3696   1564
 4.3746   1551
 4.3796   1726
 4.3846   2019
 4.3896   2089
 4.3946   2326
 4.3996   2626
 4.4046   3018
 4.4096   3331
 4.4146   3820
 4.4196   4210
 4.4246   4772
 4.4296   5496
 4.4346   6151
 4.4396   6648
 4.4446   7392
 4.4496   8376
 4.4546   8987
 4.4597   9952
 4.4647  10481
 4.4697  11565
 4.4747  12127
 4.4797  12768
 4.4847  13617
 4.4897  13836
 4.4947  14577
 4.4997  14739
 4.5047  15147
 4.5097  15302
 4.5147  15146
 4.5197  14747
 4.5247  14894
 4.5297  14454
 4.5347  13919
 4.5397  13238
 4.5447  12798
 4.5497  11944
 4.5547  11328
 4.5597  10529
 4.5647   9621
 4.5697   8968
 4.5747   8204
 4.5797   7593
 4.5848   6738
 4.5898   6096
 4.5948   5532
 4.5998   5171
 4.6048   4693
 4.6098   4310
 4.6148   4015
 4.6198   3704
 4.6248   3419
 4.6298   3160
 4.6348   2986
 4.6398   3011
 4.6448   2671
 4.6498   2563
 4.6548   2510
 4.6598   2466
 4.6648   2361
 4.6698   2276
 4.6748   2265
 4.6798   2105
 4.6848   2099
 4.6898   1994
 4.6948   1899
 4.6998   1930
 4.7048   1773
 4.7099   1692
 4.7149   1627
 4.7199   1530
 4.7249   1525
 4.7299   1479
 4.7349   1355
 4.7399   1407
 4.7449   1340
 4.7499   1282
 4.7549   1272
 4.7599   1286
 4.7649   1322
 4.7699   1334
 4.7749   1421
 4.7799   1406
 4.7849   1425
 4.7899   1515
 4.7949   1525
 4.7999   1561
 4.8049   1640
 4.8099   1723
 4.8149   1757
 4.8199   1741
 4.8249   1894
 4.8299   1916
  4.835   1922
   4.84   2010
  4.845   2178
   4.85   2229
  4.855   2249
   4.86   2326
  4.865   2546
   4.87   2584
  4.875   2670
   4.88   2796
  4.885   2866
   4.89   2837
  4.895   3039
    4.9   3057
  4.905   3236
   4.91   3199
  4.915   3319
   4.92   3280
  4.925   3331
   4.93   3310
  4.935   3335
   4.94   3269
  4.945   3316
   4.95   3196
  4.955   3125
 4.9601   3131
 4.9651   3043
 4.9701   2915
 4.9751   2737
 4.9801   2652
 4.9851   2521
 4.9901   2376
 4.9951   2240
 5.0001   2082
 5.0051   1913
 5.0101   1905
 5.0151   1772
 5.0201   1707
 5.0251   1597
 5.0301   1344
 5.0351   1392
 5.0401   1261
 5.0451   1143
 5.0501   1186
 5.0551   1080
 5.0601   1036
 5.0651   1045
 5.0701   1012
 5.0751    886
 5.0801    943
 5.0852    889
 5.0902    938
 5.0952    910
 5.1002    919
 5.1052    958
 5.1102    907
 5.1152    889
 5.1202    914
 5.1252    947
 5.1302    934
 5.1352    926
 5.1402    917
 5.1452    963
 5.1502    961
 5.1552    942
 5.1602    943
 5.1652    977
 5.1702    983
 5.1752   1000
 5.1802   1027
 5.1852    973
 5.1902    970
 5.1952    994
 5.2002   1017
 5.2052   1053
 5.2103    962
 5.2153   1063
 5.2203   1021
 5.2253    992
 5.2303    993
 5.2353    962
 5.2403   1059
 5.2453   1037
 5.2503   1062
 5.2553   1051
 5.2603   1043
 5.2653   1027
 5.2703   1095
 5.2753   1043
 5.2803   1041
 5.2853   1063
 5.2903   1039
 5.2953   1099
 5.3003   1146
 5.3053   1065
 5.3103   1011
 5.3153   1143
 5.3203   1211
 5.3253   1124
 5.3303   1237
 5.3354   1280
 5.3404   1191
 5.3454   1268
 5.3504   1315
 5.3554   1257
 5.3604   1329
 5.3654   1297
 5.3704   1431
 5.3754   1335
 5.3804   1384
 5.3854   1452
 5.3904   1519
 5.3954   1486
 5.4004   1480
 5.4054   1500
 5.4104   1469
 5.4154   1544
 5.4204   1466
 5.4254   1485
 5.4304   1488
 5.4354   1498
 5.4404   1478
 5.4454   1444
 5.4504   1406
 5.4554   1377
 5.4605   1393
 5.4655   1287
 5.4705   1283
 5.4755   1252
 5.4805   1258
 5.4855   1197
 5.4905   1173
 5.4955   1140
 5.5005   1098
 5.5055   1174
 5.5105   1089
 5.5155   1031
 5.5205   1054
 5.5255   1081
 5.5305   1008
 5.5355   1062
 5.5405   1008
 5.5455   1019
 5.5505   1058
 5.5555    989
 5.5605   1061
 5.5655    967
 5.5705    964
 5.5755   1009
 5.5805    945
 5.5856    935
 5.5906    999
 5.5956   1002
 5.6006    974
 5.6056    967
 5.6106    958
 5.6156    929
 5.6206    953
 5.6256    945
 5.6306    941
 5.6356    917
 5.6406    958
 5.6456   1014
 5.6506    970
 5.6556    933
 5.6606    966
 5.6656    922
 5.6706    953
 5.6756    957
 5.6806    961
 5.6856    981
 5.6906    970
 5.6956    918
 5.7006    948
 5.7056   1020
 5.7107   1043
 5.7157   1051
 5.7207   1010
 5.7257   1098
 5.7307   1061
 5.7357   1164
 5.7407   1205
 5.7457   1343
 5.7507   1372
 5.7557   1471
 5.7607   1598
 5.7657   1710
 5.7707   1863
 5.7757   2047
 5.7807   2353
 5.7857   2538
 5.7907   2741
 5.7957   3141
 5.8007   3447
 5.8057   3736
 5.8107   4199
 5.8157   4611
 5.8207   5116
 5.8257   5560
 5.8307   6023
 5.8358   6401
 5.8408   7028
 5.8458   7733
 5.8508   8194
 5.8558   8569
 5.8608   9152
 5.8658   9510
 5.8708   9870
 5.8758  10162
 5.8808  10591
 5.8858  10643
 5.8908  10836
 5.8958  11035
 5.9008  10976
 5.9058  10932
 5.9108  10618
 5.9158  10509
 5.9208  10106
 5.9258   9664
 5.9308   9464
 5.9358   9045
 5.9408   8529
 5.9458   8135
 5.9508   7403
 5.9558   7018
 5.9609   6525
 5.9659   6299
 5.9709   5698
 5.9759   5264
 5.9809   4774
 5.9859   4320
 5.9909   3963
 5.9959   3514
 6.0009   3288
 6.0059   2993
 6.0109   2679
 6.0159   2588
 6.0209   2489
 6.0259   2273
 6.0309   2106
 6.0359   1987
 6.0409   1761
 6.0459   1714
 6.0509   1725
 6.0559   1600
 6.0609   1650
 6.0659   1576
 6.0709   1540
 6.0759   1612
 6.0809   1533
  6.086   1533
  6.091   1656
  6.096   1660
  6.101   1601
  6.106   1586
  6.111   1671
  6.116   1668
  6.121   1764
  6.126   1709
  6.131   1818
  6.136   1928
  6.141   1978
  6.146   1936
  6.151   2040
  6.156   2061
  6.161   2147
  6.166   2273
  6.171   2349
  6.176   2430
  6.181   2534
  6.186   2760
  6.191   3017
  6.196   3314
  6.201   3596
  6.206   3964
 6.2111   4489
 6.2161   5028
 6.2211   5945
 6.2261   6618
 6.2311   7898
 6.2361   9152
 6.2411  10791
 6.2461  12682
 6.2511  15322
 6.2561  17758
 6.2611  21024
 6.2661  25044
 6.2711  29017
 6.2761  34285
 6.2811  39864
 6.2861  46496
 6.2911  53909
 6.2961  62282
 6.3011  71441
 6.3061  81372
 6.3111  91821
 6.3161 103987
 6.3211 116263
 6.3261 128462
 6.3311 142567
 6.3362 156156
 6.3412 170428
 6.3462 183543
 6.3512 198022
 6.3562 212253
 6.3612 224122
 6.3662 236333
 6.3712 246272
 6.3762 256593
 6.3812 265218
 6.3862 271447
 6.3912 276796
 6.3962 279082
 6.4012 281250
 6.4062 280284
 6.4112 277531
 6.4162 272651
 6.4212 266055
 6.4262 257182
 6.4312 248787
 6.4362 238137
 6.4412 225533
 6.4462 212871
 6.4512 200302
 6.4562 186068
 6.4613 172373
 6.4663 157574
 6.4713 144097
 6.4763 130441
 6.4813 118386
 6.4863 105092
 6.4913  93354
 6.4963  82609
 6.5013  72380
 6.5063  63435
 6.5113  54932
 6.5163  47156
 6.5213  40457
 6.5263  34538
 6.5313  29140
 6.5363  24733
 6.5413  20501
 6.5463  17544
 6.5513  14402
 6.5563  11975
 6.5613  10211
 6.5663   8377
 6.5713   6966
 6.5763   5624
 6.5813   4830
 6.5864   4096
 6.5914   3352
 6.5964   3136
 6.6014   2599
 6.6064   2221
 6.6114   2016
 6.6164   1807
 6.6214   1607
 6.6264   1474
 6.6314   1343
 6.6364   1240
 6.6414   1269
 6.6464   1093
 6.6514   1174
 6.6564   1111
 6.6614   1099
 6.6664   1028
 6.6714    992
 6.6764   1008
 6.6814   1006
 6.6864   1007
 6.6914    980
 6.6964    930
 6.7014    955
 6.7064    950
 6.7115    934
 6.7165    990
 6.7215    951
 6.7265    907
 6.7315    888
 6.7365    976
 6.7415    966
 6.7465    994
 6.7515    984
 6.7565    985
 6.7615    987
 6.7665    977
 6.7715    950
 6.7765   1010
 6.7815   1111
 6.7865   1050
 6.7915   1113
 6.7965   1065
 6.8015   1104
 6.8065   1181
 6.8115   1305
 6.8165   1281
 6.8215   1176
 6.8265   1346
 6.8315   1404
 6.8366   1475
 6.8416   1595
 6.8466   1625
 6.8516   1599
 6.8566   1801
 6.8616   1903
 6.8666   1940
 6.8716   2118
 6.8766   2227
 6.8816   2499
 6.8866   2632
 6.8916   2881
 6.8966   3215
 6.9016   3480
 6.9066   3881
 6.9116   4402
 6.9166   4886
 6.9216   5395
 6.9266   6021
 6.9316   6729
 6.9366   7624
 6.9416   8546
 6.9466   9493
 6.9516  10482
 6.9566  11628
 6.9617  13106
 6.9667  14350
 6.9717  15800
 6.9767  17510
 6.9817  18983
 6.9867  20553
 6.9917  22199
 6.9967  23888
 7.0017  25785
 7.0067  27230
 7.0117  28518
 7.0167  30548
 7.0217  31891
 7.0267  33200
 7.0317  34527
 7.0367  34815
 7.0417  35768
 7.0467  36438
 7.0517  36530
 7.0567  36585
 7.0617  36589
 7.0667  36558
 7.0717  36011
 7.0767  35303
 7.0817  34143
 7.0868  33134
 7.0918  31600
 7.0968  30415
 7.1018  28748
 7.1068  27040
 7.1118  25625
 7.1168  23590
 7.1218  22179
 7.1268  20151
 7.1318  18600
 7.1368  17199
 7.1418  15577
 7.1468  14039
 7.1518  12742
 7.1568  11122
 7.1618  10005
 7.1668   8747
 7.1718   7732
 7.1768   6693
 7.1818   5840
 7.1868   4987
 7.1918   4317
 7.1968   3728
 7.2018   3336
 7.2068   2812
 7.2119   2486
 7.2169   2181
 7.2219   1841
 7.2269   1647
 7.2319   1511
 7.2369   1367
 7.2419   1172
 7.2469   1130
 7.2519   1068
 7.2569   1062
 7.2619   1025
 7.2669   1024
 7.2719   1080
 7.2769   1125
 7.2819   1172
 7.2869   1163
 7.2919   1310
 7.2969   1334
 7.3019   1374
 7.3069   1508
 7.3119   1525
 7.3169   1659
 7.3219   1700
 7.3269   1882
 7.3319   1867
  7.337   2085
  7.342   2209
  7.347   2229
  7.352   2272
  7.357   2510
  7.362   2554
  7.367   2590
  7.372   2506
  7.377   2612
  7.382   2708
  7.387   2665
  7.392   2774
  7.397   2712
  7.402   2625
  7.407   2598
  7.412   2639
  7.417   2669
  7.422   2572
  7.427   2506
  7.432   2489
  7.437   2461
  7.442   2334
  7.447   2389
  7.452   2293
  7.457   2149
 7.4621   2131
 7.4671   2025
 7.4721   2089
 7.4771   1955
 7.4821   1842
 7.4871   1745
 7.4921   1671
 7.4971   1557
 7.5021   1589
 7.5071   1456
 7.5121   1448
 7.5171   1302
 7.5221   1228
 7.5271   1167
 7.5321   1101
 7.5371   1044
 7.5421    986
 7.5471    954
 7.5521    923
 7.5571    829
 7.5621    781
 7.5671    741
 7.5721    737
 7.5771    698
 7.5821    675
 7.5872    656
 7.5922    674
 7.5972    666
 7.6022    633
 7.6072    591
 7.6122    619
 7.6172    614
 7.6222    650
 7.6272    682
 7.6322    623
 7.6372    652
 7.6422    642
 7.6472    694
 7.6522    724
 7.6572    767
 7.6622    725
 7.6672    763
 7.6722    748
 7.6772    800
 7.6822    784
 7.6872    829
 7.6922    790
 7.6972    766
 7.7022    829
 7.7072    817
 7.7123    800
 7.7173    813
 7.7223    820
 7.7273    773
 7.7323    724
 7.7373    722
 7.7423    699
 7.7473    698
 7.7523    700
 7.7573    642
 7.7623    663
 7.7673    580
 7.7723    611
 7.7773    581
 7.7823    552
 7.7873    524
 7.7923    539
 7.7973    543
 7.8023    558
 7.8073    523
 7.8123    505
 7.8173    484
 7.8223    469
 7.8273    476
 7.8323    480
 7.8374    459
 7.8424    450
 7.8474    482
 7.8524    506
 7.8574    492
 7.8624    468
 7.8674    449
 7.8724    484
 7.8774    482
 7.8824    500
 7.8874    544
 7.8924    533
 7.8974    538
 7.9024    534
 7.9074    492
 7.9124    526
 7.9174    560
 7.9224    539
 7.9274    554
 7.9324    576
 7.9374    560
 7.9424    593
 7.9474    592
 7.9524    624
 7.9574    607
 7.9625    587
 7.9675    605
 7.9725    635
 7.9775    612
 7.9825    625
 7.9875    673
 7.9925    640
 7.9975    681
 8.0025    701
 8.0075    737
 8.0125    733
 8.0175    750
 8.0225    732
 8.0275    730
 8.0325    777
 8.0375    711
 8.0425    750
 8.0475    762
 8.0525    731
 8.0575    800
 8.0625    728
 8.0675    746
 8.0725    657
 8.0775    700
 8.0825    725
 8.0876    708
 8.0926    627
 8.0976    643
 8.1026    617
 8.1076    609
 8.1126    569
 8.1176    556
 8.1226    562
 8.1276    479
 8.1326    521
 8.1376    512
 8.1426    468
 8.1476    466
 8.1526    437
 8.1576    467
 8.1626    448
 8.1676    461
 8.1726    455
 8.1776    462
 8.1826    430
 8.1876    473
 8.1926    418
 8.1976    420
 8.2026    427
 8.2076    448
 8.2127    483
 8.2177    462
 8.2227    441
 8.2277    447
 8.2327    426
 8.2377    475
 8.2427    485
 8.2477    416
 8.2527    435
 8.2577    470
 8.2627    486
 8.2677    487
 8.2727    431
 8.2777    420
 8.2827    415
 8.2877    444
 8.2927    427
 8.2977    447
 8.3027    419
 8.3077    411
 8.3127    404
 8.3177    423
 8.3227    385
 8.3277    389
 8.3327    425
 8.3378    434
 8.3428    363
 8.3478    432
 8.3528    414
 8.3578    411
 8.3628    410
 8.3678    406
 8.3728    399
 8.3778    442
 8.3828    392
 8.3878    435
 8.3928    418
 8.3978    386
 8.4028    441
 8.4078    418
 8.4128    445
 8.4178    502
 8.4228    473
 8.4278    506
 8.4328    556
 8.4378    591
 8.4428    619
 8.4478    668
 8.4528    659
 8.4578    795
 8.4629    947
 8.4679   1011
 8.4729   1030
 8.4779   1202
 8.4829   1296
 8.4879   1544
 8.4929   1657
 8.4979   1900
 8.5029   2095
 8.5079   2230
 8.5129   2589
 8.5179   2820
 8.5229   3259
 8.5279   3536
 8.5329   3916
 8.5379   4375
 8.5429   4788
 8.5479   5039
 8.5529   5501
 8.5579   5895
 8.5629   6341
 8.5679   6815
 8.5729   7251
 8.5779   7812
 8.5829   8000
  8.588   8544
  8.593   8973
  8.598   9397
  8.603   9623
  8.608   9863
  8.613  10029
  8.618  10227
  8.623  10437
  8.628  10626
  8.633  10475
  8.638  10428
  8.643  10358
  8.648  10415
  8.653  10039
  8.658   9959
  8.663   9361
  8.668   9217
  8.673   8663
  8.678   8536
  8.683   8167
  8.688   7566
  8.693   7118
  8.698   6753
  8.703   6436
  8.708   5875
 8.7131   5300
 8.7181   4974
 8.7231   4624
 8.7281   4185
 8.7331   3780
 8.7381   3479
 8.7431   3142
 8.7481   2757
 8.7531   2515
 8.7581   2289
 8.7631   2094
 8.7681   1844
 8.7731   1644
 8.7781   1494
 8.7831   1385
 8.7881   1237
 8.7931   1095
 8.7981   1095
 8.8031    953
 8.8081    876
 8.8131    912
 8.8181    893
 8.8231    861
 8.8281    793
 8.8331    776
 8.8382    747
 8.8432    668
 8.8482    703
 8.8532    660
 8.8582    691
 8.8632    669
 8.8682    700
 8.8732    713
 8.8782    708
 8.8832    688
 8.8882    695
 8.8932    687
 8.8982    783
 8.9032    719
 8.9082    801
 8.9132    815
 8.9182    851
 8.9232    861
 8.9282    875
 8.9332    837
 8.9382    892
 8.9432    898
 8.9482    885
 8.9532   1006
 8.9582    983
 8.9633    979
 8.9683   1042
 8.9733   1018
 8.9783   1112
 8.9833   1030
 8.9883   1186
 8.9933   1307
 8.9983   1326
 9.0033   1481
 9.0083   1527
 9.0133   1701
 9.0183   1707
 9.0233   1964
 9.0283   2209
 9.0333   2374
 9.0383   2702
 9.0433   3052
 9.0483   3482
 9.0533   4019
 9.0583   4517
 9.0633   5200
 9.0683   5787
 9.0733   6719
 9.0783   7490
 9.0833   8744
 9.0884  10040
 9.0934  11466
 9.0984  13190
 9.1034  14935
 9.1084  17025
 9.1134  19209
 9.1184  21431
 9.1234  24325
 9.1284  27324
 9.1334  30271
 9.1384  33403
 9.1434  37506
 9.1484  41027
 9.1534  44856
 9.1584  48912
 9.1634  52691
 9.1684  57243
 9.1734  61393
 9.1784  65010
 9.1834  68940
 9.1884  74213
 9.1934  77834
 9.1984  80874
 9.2034  84491
 9.2084  87793
 9.2135  90973
 9.2185  93073
 9.2235  95983
 9.2285  97537
 9.2335  98280
 9.2385  99170
 9.2435  99594
 9.2485  98964
 9.2535  98267
 9.2585  96754
 9.2635  95310
 9.2685  92477
 9.2735  89554
 9.2785  87666
 9.2835  83919
 9.2885  79424
 9.2935  76882
 9.2985  71907
 9.3035  68265
 9.3085  64373
 9.3135  59897
 9.3185  55666
 9.3235  51371
 9.3285  47801
 9.3335  43753
 9.3386  39252
 9.3436  35880
 9.3486  32725
 9.3536  29524
 9.3586  26209
 9.3636  23127
 9.3686  20419
 9.3736  18197
 9.3786  15927
 9.3836  14194
 9.3886  12068
 9.3936  10721
 9.3986   9213
 9.4036   7907
 9.4086   6818
 9.4136   5912
 9.4186   5097
 9.4236   4334
 9.4286   3663
 9.4336   3366
 9.4386   2889
 9.4436   2535
 9.4486   2232
 9.4536   1989
 9.4586   1841
 9.4637   1664
 9.4687   1599
 9.4737   1473
 9.4787   1428
 9.4837   1434
 9.4887   1377
 9.4937   1355
 9.4987   1437
 9.5037   1370
 9.5087   1469
 9.5137   1450
 9.5187   1559
 9.5237   1547
 9.5287   1591
 9.5337   1609
 9.5387   1612
 9.5437   1570
 9.5487   1689
 9.5537   1737
 9.5587   1715
 9.5637   1741
 9.5687   1658
 9.5737   1712
 9.5787   1687
 9.5837   1647
 9.5888   1714
 9.5938   1629
 9.5988   1685
 9.6038   1568
 9.6088   1543
 9.6138   1462
 9.6188   1421
 9.6238   1423
 9.6288   1334
 9.6338   1238
 9.6388   1228
 9.6438   1090
 9.6488   1129
 9.6538   1073
 9.6588   1033
 9.6638    886
 9.6688    877
 9.6738    801
 9.6788    752
 9.6838    733
 9.6888    697
 9.6938    599
 9.6988    646
 9.7038    557
 9.7088    575
 9.7139    540
 9.7189    470
 9.7239    496
 9.7289    469
 9.7339    458
 9.7389    442
 9.7439    427
 9.7489    388
 9.7539    443
 9.7589    363
 9.7639    441
 9.7689    382
 9.7739    369
 9.7789    359
 9.7839    372
 9.7889    370
 9.7939    349
 9.7989    325
 9.8039    389
 9.8089    380
 9.8139    406
 9.8189    379
 9.8239    386
 9.8289    385
 9.8339    394
  9.839    404
  9.844    408
  9.849    400
  9.854    389
  9.859    416
  9.864    409
  9.869    458
  9.874    387
  9.879    449
  9.884    473
  9.889    463
  9.894    452
  9.899    542
  9.904    529
  9.909    536
  9.914    558
  9.919    616
  9.924    632
  9.929    656
  9.934    698
  9.939    719
  9.944    758
  9.949    778
  9.954    837
  9.959    879
 9.9641    909
 9.9691    982
 9.9741    996
 9.9791   1118
 9.9841   1195
 9.9891   1260
 9.9941   1350
 9.9991   1263
10.0041   1447
10.0091   1542
10.0141   1593
10.0191   1664
10.0241   1785
10.0291   1907
10.0341   1940
10.0391   1954
10.0441   2019
10.0491   2124
10.0541   2178
10.0591   2332
10.0641   2397
10.0691   2442
10.0741   2539
10.0791   2661
10.0841   2755
10.0892   2977
10.0942   3080
10.0992   3242
10.1042   3294
10.1092   3427
10.1142   3533
10.1192   3696
10.1242   4083
10.1292   4331
10.1342   4538
10.1392   4751
10.1442   5114
10.1492   5436
10.1542   5820
10.1592   6085
10.1642   6530
10.1692   6928
10.1742   7479
10.1792   7846
10.1842   8366
10.1892   8813
10.1942   9268
10.1992   9893
10.2042  10254
10.2092  10666
10.2143  11122
10.2193  11659
10.2243  11896
10.2293  12491
10.2343  12743
10.2393  12880
10.2443  12997
10.2493  13197
10.2543  13323
10.2593  13309
10.2643  13344
10.2693  13506
10.2743  13390
10.2793  13049
10.2843  12712
10.2893  12602
10.2943  12107
10.2993  11670
10.3043  11500
10.3093  10990
10.3143  10392
10.3193   9956
10.3243   9422
10.3293   9050
10.3343   8594
10.3394   7956
10.3444   7568
10.3494   6944
10.3544   6467
10.3594   6031
10.3644   5439
10.3694   4993
10.3744   4754
10.3794   4322
10.3844   3914
10.3894   3587
10.3944   3210
10.3994   2968
10.4044   2691
10.4094   2460
10.4144   2366
10.4194   2048
10.4244   1853
10.4294   1757
10.4344   1607
10.4394   1524
10.4444   1339
10.4494   1262
10.4544   1245
10.4594   1196
10.4645   1128
10.4695   1153
10.4745   1105
10.4795   1073
10.4845   1049
10.4895   1106
10.4945   1013
10.4995   1024
10.5045    928
10.5095   1021
10.5145    918
10.5195   1005
10.5245   1010
10.5295    906
10.5345    962
10.5395    953
10.5445    927
10.5495    858
10.5545    940
10.5595    855
10.5645    874
10.5695    817
10.5745    823
10.5795    762
10.5845    770
10.5896    786
10.5946    713
10.5996    717
10.6046    699
10.6096    686
10.6146    623
10.6196    616
10.6246    606
10.6296    566
10.6346    526
10.6396    471
10.6446    471
10.6496    470
10.6546    453
10.6596    435
10.6646    481
10.6696    457
10.6746    381
10.6796    425
10.6846    383
10.6896    361
10.6946    360
10.6996    377
10.7046    398
10.7096    368
10.7147    379
10.7197    362
10.7247    367
10.7297    344
10.7347    363
10.7397    357
10.7447    371
10.7497    323
10.7547    357
10.7597    314
10.7647    363
10.7697    338
10.7747    336
10.7797    325
10.7847    286
10.7897    276
10.7947    289
10.7997    295
10.8047    284
10.8097    304
10.8147    298
10.8197    256
10.8247    252
10.8297    237
10.8347    267
10.8398    248
10.8448    191
10.8498    225
10.8548    238
10.8598    206
10.8648    213
10.8698    207
10.8748    191
10.8798    186
10.8848    204
10.8898    173
10.8948    176
10.8998    185
10.9048    180
10.9098    172
10.9148    155
10.9198    180
10.9248    160
10.9298    155
10.9348    166
10.9398    158
10.9448    163
10.9498    158
10.9548    159
10.9598    152
10.9649    181
10.9699    149
10.9749    141
10.9799    148
10.9849    173
10.9899    169
10.9949    138
10.9999    145
11.0049    150
11.0099    136
11.0149    169
11.0199    150
11.0249    151
11.0299    137
11.0349    160
11.0399    163
11.0449    136
11.0499    142
11.0549    152
11.0599    158
11.0649    162
11.0699    136
11.0749    136
11.0799    134
11.0849    154
  11.09    129
 11.095    155
   11.1    161
 11.105    152
  11.11    140
 11.115    137
  11.12    135
 11.125    144
  11.13    153
 11.135    149
  11.14    131
 11.145    152
  11.15    158
 11.155    143
  11.16    157
 11.165    143
  11.17    148
 11.175    140
  11.18    160
 11.185    118
  11.19    130
 11.195    156
   11.2    150
 11.205    134
  11.21    121
11.2151    141
11.2201    137
11.2251    132
11.2301    151
11.2351    147
11.2401    143
11.2451    126
11.2501    127
11.2551    134
11.2601    128
11.2651    122
11.2701    128
11.2751    130
11.2801    145
11.2851    124
11.2901    121
11.2951    113
11.3001    131
11.3051    118
11.3101    125
11.3151    123
11.3201    106
11.3251    121
11.3301    119
11.3351    114
11.3402    112
11.3452    120
11.3502    112
11.3552    110
11.3602    125
11.3652    119
11.3702    103
11.3752    106
11.3802    103
11.3852    114
11.3902    106
11.3952    121
11.4002    111
11.4052    112
11.4102    130
11.4152    126
11.4202    109
11.4252     95
11.4302    107
11.4352    105
11.4402    133
11.4452    128
11.4502    112
11.4552    122
11.4602    134
11.4653    107
11.4703    131
11.4753     95
11.4803    106
11.4853     99
11.4903    110
11.4953    115
11.5003    126
11.5053    112
11.5103    143
11.5153    111
11.5203     99
11.5253    114
11.5303    112
11.5353    122
11.5403    111
11.5453    131
11.5503    128
11.5553    137
11.5603    111
11.5653    104
11.5703    134
11.5753    119
11.5803    118
11.5853    120
11.5904    121
11.5954    139
11.6004    104
11.6054    158
11.6104    142
11.6154    139
11.6204    123
11.6254    127
11.6304    137
11.6354    141
11.6404    153
11.6454    135
11.6504    160
11.6554    131
11.6604    157
11.6654    155
11.6704    155
11.6754    165
11.6804    156
11.6854    148
11.6904    155
11.6954    150
11.7004    171
11.7054    166
11.7104    149
11.7155    151
11.7205    176
11.7255    172
11.7305    169
11.7355    157
11.7405    134
11.7455    155
11.7505    137
11.7555    136
11.7605    142
11.7655    135
11.7705    147
11.7755    160
11.7805    137
11.7855    166
11.7905    165
11.7955    165
11.8005    121
11.8055    146
11.8105    131
11.8155    145
11.8205    163
11.8255    126
11.8305    138
11.8355    140
11.8406    124
11.8456    129
11.8506    129
11.8556    114
11.8606    134
11.8656    130
11.8706    143
11.8756    125
11.8806    154
11.8856    105
11.8906    123
11.8956    130
11.9006    132
11.9056    112
11.9106    138
11.9156    112
11.9206    114
11.9256    133
11.9306    117
11.9356    122
11.9406    129
11.9456    135
11.9506    119
11.9556    139
11.9606    123
11.9657    131
11.9707    156
11.9757    135
11.9807    115
11.9857    132
11.9907    112
11.9957    124
12.0007    114
12.0057    132
12.0107    127
12.0157    123
12.0207    130
12.0257    127
12.0307    136
12.0357    102
12.0407    125
12.0457    132
12.0507    130
12.0557    120
12.0607    117
12.0657    114
12.0707    122
12.0757    128
12.0807    122
12.0857    109
12.0908    141
12.0958    131
12.1008    126
12.1058    140
12.1108    141
12.1158    126
12.1208    128
12.1258    132
12.1308    111
12.1358    148
12.1408    153
12.1458    141
12.1508    160
12.1558    129
12.1608    180
12.1658    143
12.1708    144
12.1758    133
12.1808    170
12.1858    182
12.1908    162
12.1958    182
12.2008    179
12.2058    163
12.2108    186
12.2159    186
12.2209    194
12.2259    208
12.2309    202
12.2359    194
12.2409    205
12.2459    188
12.2509    192
12.2559    218
12.2609    221
12.2659    220
12.2709    213
12.2759    249
12.2809    234
12.2859    231
12.2909    219
12.2959    225
12.3009    212
12.3059    237
12.3109    229
12.3159    237
12.3209    233
12.3259    269
12.3309    224
12.3359    249
 12.341    215
 12.346    217
 12.351    235
 12.356    207
 12.361    231
 12.366    248
 12.371    207
 12.376    214
 12.381    177
 12.386    207
 12.391    206
 12.396    213
 12.401    202
 12.406    204
 12.411    203
 12.416    199
 12.421    235
 12.426    221
 12.431    238
 12.436    204
 12.441    208
 12.446    211
 12.451    223
 12.456    230
 12.461    233
12.4661    235
12.4711    225
12.4761    231
12.4811    256
12.4861    255
12.4911    230
12.4961    254
12.5011    286
12.5061    300
12.5111    276
12.5161    275
12.5211    329
12.5261    369
12.5311    356
12.5361    346
12.5411    389
12.5461    364
12.5511    413
12.5561    371
12.5611    391
12.5661    399
12.5711    456
12.5761    434
12.5811    439
12.5861    455
12.5912    467
12.5962    507
12.6012    472
12.6062    490
12.6112    464
12.6162    508
12.6212    500
12.6262    535
12.6312    536
12.6362    541
12.6412    539
12.6462    484
12.6512    512
12.6562    522
12.6612    504
12.6662    527
12.6712    539
12.6762    512
12.6812    543
12.6862    529
12.6912    548
12.6962    531
12.7012    548
12.7062    524
12.7112    590
12.7163    547
12.7213    594
12.7263    574
12.7313    578
12.7363    618
12.7413    601
12.7463    615
12.7513    635
12.7563    611
12.7613    641
12.7663    695
12.7713    631
12.7763    708
12.7813    679
12.7863    744
12.7913    751
12.7963    760
12.8013    746
12.8063    777
12.8113    745
12.8163    797
12.8213    818
12.8263    857
12.8313    845
12.8363    856
12.8414    937
12.8464    887
12.8514    885
12.8564    941
12.8614    890
12.8664    926
12.8714    990
12.8764    956
12.8814    950
12.8864    984
12.8914    955
12.8964    887
12.9014    974
12.9064    962
12.9114    914
12.9164    954
12.9214    906
12.9264    874
12.9314    930
12.9364    867
12.9414    931
12.9464    914
12.9514    838
12.9564    938
12.9614    848
12.9665    844
12.9715    788
12.9765    826
12.9815    737
12.9865    745
12.9915    693
12.9965    640
13.0015    677
13.0065    646
13.0115    617
13.0165    570
13.0215    532
13.0265    521
13.0315    508
13.0365    485
13.0415    453
13.0465    482
13.0515    439
13.0565    446
13.0615    408
13.0665    381
13.0715    374
13.0765    373
13.0815    363
13.0865    347
13.0916    340
13.0966    334
13.1016    365
13.1066    370
13.1116    346
13.1166    331
13.1216    335
13.1266    333
13.1316    337
13.1366    307
13.1416    375
13.1466    374
13.1516    382
13.1566    380
13.1616    403
13.1666    423
13.1716    465
13.1766    407
13.1816    470
13.1866    490
13.1916    525
13.1966    559
13.2016    604
13.2066    641
13.2116    678
13.2167    732
13.2217    704
13.2267    820
13.2317    841
13.2367    887
13.2417    973
13.2467   1042
13.2517   1092
13.2567   1115
13.2617   1178
13.2667   1276
13.2717   1275
13.2767   1384
13.2817   1393
13.2867   1458
13.2917   1518
13.2967   1677
13.3017   1675
13.3067   1754
13.3117   1789
13.3167   1820
13.3217   1931
13.3267   1960
13.3317   2017
13.3367   2093
13.3418   2074
13.3468   2170
13.3518   2178
13.3568   2077
13.3618   2227
13.3668   2156
13.3718   2235
13.3768   2195
13.3818   2173
13.3868   2209
13.3918   2165
13.3968   2120
13.4018   2068
13.4068   2005
13.4118   1929
13.4168   1973
13.4218   1935
13.4268   1856
13.4318   1895
13.4368   1779
13.4418   1671
13.4468   1632
13.4518   1531
13.4568   1517
13.4618   1344
13.4669   1448
13.4719   1261
13.4769   1227
13.4819   1199
13.4869   1103
13.4919   1040
13.4969   1000
13.5019    956
13.5069    851
13.5119    836
13.5169    790
13.5219    846
13.5269    720
13.5319    707
13.5369    645
13.5419    637
13.5469    595
13.5519    552
13.5569    516
13.5619    480
13.5669    485
13.5719    545
13.5769    454
13.5819    431
13.5869    443
 13.592    432
 13.597    444
 13.602    429
 13.607    372
 13.612    379
 13.617    391
 13.622    397
 13.627    388
 13.632    391
 13.637    370
 13.642    358
 13.647    378
 13.652    361
 13.657    363
 13.662    332
 13.667    371
 13.672    381
 13.677    350
 13.682    345
 13.687    371
 13.692    350
 13.697    336
 13.702    375
 13.707    381
 13.712    341
13.7171    366
13.7221    349
13.7271    366
13.7321    414
13.7371    379
13.7421    359
13.7471    345
13.7521    364
13.7571    375
13.7621    405
13.7671    362
13.7721    391
13.7771    392
13.7821    381
13.7871    415
13.7921    404
13.7971    390
13.8021    392
13.8071    446
13.8121    427
13.8171    459
13.8221    473
13.8271    434
13.8321    445
13.8371    483
13.8422    483
13.8472    514
13.8522    552
13.8572    579
13.8622    609
13.8672    571
13.8722    652
13.8772    730
13.8822    778
13.8872    810
13.8922    871
13.8972   1003
13.9022   1001
13.9072   1173
13.9122   1247
13.9172   1367
13.9222   1423
13.9272   1563
13.9322   1728
13.9372   1855
13.9422   2049
13.9472   2246
13.9522   2566
13.9572   2605
13.9622   2983
13.9673   3239
13.9723   3597
13.9773   3852
13.9823   4192
13.9873   4612
13.9923   4964
13.9973   5236
14.0023   5648
14.0073   6174
14.0123   6805
14.0173   7125
14.0223   7758
14.0273   8092
14.0323   8779
14.0373   9116
14.0423   9664
14.0473  10452
14.0523  10957
14.0573  11506
14.0623  11817
14.0673  12641
14.0723  12961
14.0773  13370
14.0823  14061
14.0873  14575
14.0924  14696
14.0974  15146
14.1024  15518
14.1074  15908
14.1124  16191
14.1174  16282
14.1224  16622
14.1274  16756
14.1324  16719
14.1374  16971
14.1424  17114
14.1474  16763
14.1524  16634
14.1574  16569
14.1624  16394
14.1674  16006
14.1724  15838
14.1774  15507
14.1824  15129
14.1874  14700
14.1924  14396
14.1974  13908
14.2024  13137
14.2074  12411
14.2124  12210
14.2175  11596
14.2225  10983
14.2275  10438
14.2325  10052
14.2375   9234
14.2425   8656
14.2475   8133
14.2525   7728
14.2575   7262
14.2625   6578
14.2675   6153
14.2725   5721
14.2775   5298
14.2825   4708
14.2875   4433
14.2925   4046
14.2975   3667
14.3025   3318
14.3075   3008
14.3125   2841
14.3175   2530
14.3225   2272
14.3275   2170
14.3325   1891
14.3375   1715
14.3426   1558
14.3476   1412
14.3526   1371
14.3576   1202
14.3626   1076
14.3676   1030
14.3726    942
14.3776    836
14.3826    825
14.3876    774
14.3926    693
14.3976    679
14.4026    622
14.4076    610
14.4126    597
14.4176    615
14.4226    531
14.4276    519
14.4326    501
14.4376    528
14.4426    520
14.4476    491
14.4526    495
14.4576    534
14.4626    492
14.4677    485
14.4727    478
14.4777    488
14.4827    468
14.4877    490
14.4927    456
14.4977    443
14.5027    506
14.5077    511
14.5127    481
14.5177    500
14.5227    497
14.5277    481
14.5327    462
14.5377    449
14.5427    439
14.5477    481
14.5527    524
14.5577    502
14.5627    499
14.5677    500
14.5727    501
14.5777    479
14.5827    529
14.5877    526
14.5928    503
14.5978    522
14.6028    519
14.6078    527
14.6128    527
14.6178    511
14.6228    525
14.6278    561
14.6328    551
14.6378    606
14.6428    547
14.6478    604
14.6528    549
14.6578    583
14.6628    568
14.6678    558
14.6728    607
14.6778    627
14.6828    613
14.6878    646
14.6928    606
14.6978    619
14.7028    672
14.7078    634
14.7128    683
14.7179    693
14.7229    682
14.7279    672
14.7329    692
14.7379    749
14.7429    815
14.7479    808
14.7529    838
14.7579    797
14.7629    847
14.7679    899
14.7729    936
14.7779    938
14.7829    869
14.7879    983
14.7929    983
14.7979   1045
14.8029   1105
14.8079   1058
14.8129   1109
14.8179   1155
14.8229   1117
14.8279   1224
14.8329   1275
14.8379   1233
 14.843   1374
 14.848   1313
 14.853   1363
 14.858   1459
 14.863   1449
 14.868   1437
 14.873   1561
 14.878   1544
 14.883   1606
 14.888   1613
 14.893   1668
 14.898   1645
 14.903   1617
 14.908   1726
 14.913   1672
 14.918   1714
 14.923   1687
 14.928   1736
 14.933   1725
 14.938   1696
 14.943   1782
 14.948   1791
 14.953   1742
 14.958   1808
 14.963   1780
14.9681   1664
14.9731   1756
14.9781   1702
14.9831   1700
14.9881   1671
14.9931   1712
14.9981   1566
15.0031   1545
15.0081   1595
15.0131   1666
15.0181   1623
15.0231   1477
15.0281   1522
15.0331   1541
15.0381   1454
15.0431   1427
15.0481   1332
15.0531   1303
15.0581   1353
15.0631   1327
15.0681   1343
15.0731   1298
15.0781   1319
15.0831   1288
15.0881   1331
15.0932   1275
15.0982   1275
15.1032   1242
15.1082   1233
15.1132   1207
15.1182   1288
15.1232   1213
15.1282   1254
15.1332   1194
15.1382   1222
15.1432   1156
15.1482   1203
15.1532   1207
15.1582   1231
15.1632   1138
15.1682   1184
15.1732   1252
15.1782   1155
15.1832   1207
15.1882   1193
15.1932   1151
15.1982   1247
15.2032   1232
15.2082   1214
15.2132   1231
15.2183   1244
15.2233   1244
15.2283   1267
15.2333   1276
15.2383   1348
15.2433   1394
15.2483   1341
15.2533   1344
15.2583   1323
15.2633   1391
15.2683   1275
15.2733   1346
15.2783   1332
15.2833   1333
15.2883   1457
15.2933   1331
15.2983   1470
15.3033   1402
15.3083   1449
15.3133   1427
15.3183   1383
15.3233   1477
15.3283   1492
15.3333   1446
15.3383   1454
15.3434   1541
15.3484   1523
15.3534   1578
15.3584   1525
15.3634   1535
15.3684   1621
15.3734   1659
15.3784   1505
15.3834   1575
15.3884   1639
15.3934   1632
15.3984   1696
15.4034   1597
15.4084   1728
15.4134   1748
15.4184   1699
15.4234   1732
15.4284   1825
15.4334   1799
15.4384   1777
15.4434   1803
15.4484   1759
15.4534   1899
15.4584   1976
15.4634   1927
15.4685   1964
15.4735   1992
15.4785   1965
15.4835   1927
15.4885   2082
15.4935   2080
15.4985   2035
15.5035   2030
15.5085   2215
15.5135   2140
15.5185   2192
15.5235   2217
15.5285   2274
15.5335   2266
15.5385   2349
15.5435   2299
15.5485   2412
15.5535   2449
15.5585   2439
15.5635   2522
15.5685   2507
15.5735   2543
15.5785   2605
15.5835   2761
15.5885   2777
15.5936   2763
15.5986   2716
15.6036   2819
15.6086   2909
15.6136   2972
15.6186   2990
15.6236   2963
15.6286   3173
15.6336   3080
15.6386   3151
15.6436   3208
15.6486   3240
15.6536   3368
15.6586   3443
15.6636   3391
15.6686   3434
15.6736   3681
15.6786   3738
15.6836   3642
15.6886   3924
15.6936   3881
15.6986   4011
15.7036   4198
15.7086   4276
15.7136   4347
15.7187   4446
15.7237   4405
15.7287   4570
15.7337   4706
15.7387   4658
15.7437   4963
15.7487   5053
15.7537   5002
15.7587   5164
15.7637   5177
15.7687   5268
15.7737   5375
15.7787   5404
15.7837   5508
15.7887   5497
15.7937   5672
15.7987   5744
15.8037   5840
15.8087   5865
15.8137   5888
15.8187   6053
15.8237   6118
15.8287   6017
15.8337   5916
15.8387   5963
15.8438   6009
15.8488   5907
15.8538   5882
15.8588   5904
15.8638   5875
15.8688   6011
15.8738   5817
15.8788   5823
15.8838   5789
15.8888   5801
15.8938   5855
15.8988   5700
15.9038   5603
15.9088   5667
15.9138   5751
15.9188   5675
15.9238   5563
15.9288   5729
15.9338   5534
15.9388   5570
15.9438   5594
15.9488   5444
15.9538   5441
15.9588   5647
15.9638   5556
15.9689   5454
15.9739   5438
15.9789   5658
15.9839   5599
15.9889   5569
15.9939   5559
15.9989   5634
16.0039   5856
16.0089   5759
16.0139   5781
16.0189   5867
16.0239   5888
16.0289   5999
16.0339   6049
16.0389   6150
16.0439   6269
16.0489   6314
16.0539   6291
16.0589   6556
16.0639   6768
16.0689   6634
16.0739   6681
16.0789   6894
16.0839   6846
16.0889   7044
 16.094   7256
 16.099   7104
 16.104   7285
 16.109   7429
 16.114   7578
 16.119   7358
 16.124   7830
 16.129   7933
 16.134   7876
 16.139   8302
 16.144   8320
 16.149   8238
 16.154   8550
 16.159   8369
 16.164   8887
 16.169   8767
 16.174   9205
 16.179   9082
 16.184   9265
 16.189   9457
 16.194   9858
 16.199   9903
 16.204   9978
 16.209  10102
 16.214  10314
16.2191  10471
16.2241  10712
16.2291  10886
16.2341  11111
16.2391  11259
16.2441  11511
16.2491  11628
16.2541  11886
16.2591  12162
16.2641  12246
16.2691  12634
16.2741  12574
16.2791  13152
16.2841  13133
16.2891  13481
16.2941  13973
16.2991  14154
16.3041  14257
16.3091  14535
16.3141  14733
16.3191  14993
16.3241  15256
16.3291  15648
16.3341  15838
16.3391  16259
16.3442  16296
16.3492  16627
16.3542  17069
16.3592  17235
16.3642  17583
16.3692  17709
16.3742  18195
16.3792  18656
16.3842  19106
16.3892  19092
16.3942  19414
16.3992  19906
16.4042  20058
16.4092  20419
16.4142  21031
16.4192  21301
16.4242  21506
16.4292  21977
16.4342  22589
16.4392  22776
16.4442  23050
16.4492  22977
16.4542  23780
16.4592  23835
16.4642  24366
16.4693  24592
16.4743  25165
16.4793  25611
16.4843  25695
16.4893  26425
16.4943  26525
16.4993  26867
16.5043  27062
16.5093  27788
16.5143  28194
16.5193  28440
16.5243  28813
16.5293  28998
16.5343  29784
16.5393  29989
16.5443  30268
16.5493  30422
16.5543  30700
16.5593  31331
16.5643  31476
16.5693  32050
16.5743  32192
16.5793  33148
16.5843  33162
16.5893  33338
16.5944  33624
16.5994  34108
16.6044  34278
16.6094  35069
16.6144  34938
16.6194  35498
16.6244  36356
16.6294  36121
16.6344  36925
16.6394  36874
16.6444  37047
16.6494  37534
16.6544  37552
16.6594  38112
16.6644  38584
16.6694  38923
16.6744  39080
16.6794  39641
16.6844  39684
16.6894  39835
16.6944  40418
16.6994  40370
16.7044  41144
16.7094  41507
16.7144  41652
16.7195  41582
16.7245  41954
16.7295  42119
16.7345  42445
16.7395  42589
16.7445  43001
16.7495  43566
16.7545  43506
16.7595  43354
16.7645  43991
16.7695  44298
16.7745  44671
16.7795  44569
16.7845  45136
16.7895  44435
16.7945  45146
16.7995  45125
16.8045  45022
16.8095  45409
16.8145  46155
16.8195  46180
16.8245  46151
16.8295  46162
16.8345  46708
16.8395  47020
16.8446  46526
16.8496  46793
16.8546  47282
16.8596  47133
16.8646  47476
16.8696  47638
16.8746  47517
16.8796  47637
16.8846  47757
16.8896  47847
16.8946  48087
16.8996  48345
16.9046  48265
16.9096  48639
16.9146  48610
16.9196  48744
16.9246  49089
16.9296  49119
16.9346  48497
16.9396  48911
16.9446  49218
16.9496  49223
16.9546  49263
16.9596  49282
16.9646  49309
16.9697  49648
16.9747  48885
16.9797  49471
16.9847  49052
16.9897  49210
16.9947  49569
16.9997  49515
17.0047  49665
17.0097  49978
17.0147  48959
17.0197  49637
17.0247  49788
17.0297  49259
17.0347  49553
17.0397  49828
17.0447  49724
17.0497  49495
17.0547  49744
17.0597  49721
17.0647  49435
17.0697  49306
17.0747  49461
17.0797  49775
17.0847  49647
17.0897  49415
17.0948  49204
17.0998  49200
17.1048  49088
17.1098  49290
17.1148  49399
17.1198  49163
17.1248  49471
17.1298  49357
17.1348  49146
17.1398  49443
17.1448  49348
17.1498  49766
17.1548  49515
17.1598  49879
17.1648  49851
17.1698  49929
17.1748  50144
17.1798  50833
17.1848  50569
17.1898  51036
17.1948  51557
17.1998  52212
17.2048  52533
17.2098  53051
17.2148  53596
17.2199  54238
17.2249  54949
17.2299  55514
17.2349  56925
17.2399  58062
17.2449  58764
17.2499  59774
17.2549  60983
17.2599  62191
17.2649  64015
17.2699  65306
17.2749  66720
17.2799  68140
17.2849  69993
17.2899  71107
17.2949  73614
17.2999  74964
17.3049  76643
17.3099  78730
17.3149  80279
17.3199  82460
17.3249  84671
17.3299  86715
17.3349  88569
17.3399  90082
 17.345  92306
  17.35  94308
 17.355  96129
  17.36  97821
 17.365  99433
  17.37 100883
 17.375 103383
  17.38 104637
 17.385 105278
  17.39 107481
 17.395 107631
   17.4 109520
 17.405 109902
  17.41 111181
 17.415 111725
  17.42 111791
 17.425 111437
  17.43 111596
 17.435 112398
  17.44 111628
 17.445 110497
  17.45 110175
 17.455 108893
  17.46 107624
 17.465 107067
17.4701 105186
17.4751 102831
17.4801 101885
17.4851  99759
17.4901  97622
17.4951  94992
17.5001  92422
17.5051  89378
17.5101  86449
17.5151  83911
17.5201  80703
17.5251  78084
17.5301  74902
17.5351  72097
17.5401  68476
17.5451  65800
17.5501  62283
17.5551  59196
17.5601  55605
17.5651  52915
17.5701  49823
17.5751  47286
17.5801  43809
17.5851  41203
17.5901  38673
17.5952  35977
17.6002  33838
17.6052  31217
17.6102  29063
17.6152  26782
17.6202  24923
17.6252  22901
17.6302  21428
17.6352  19303
17.6402  17880
17.6452  16510
17.6502  15475
17.6552  14066
17.6602  12537
17.6652  11638
17.6702  10808
17.6752   9926
17.6802   9271
17.6852   8327
17.6902   7626
17.6952   7231
17.7002   6784
17.7052   6109
17.7102   5839
17.7152   5269
17.7203   5029
17.7253   4733
17.7303   4520
17.7353   4230
17.7403   4040
17.7453   3792
17.7503   3557
17.7553   3411
17.7603   3196
17.7653   3246
17.7703   2976
17.7753   2885
17.7803   2907
17.7853   2708
17.7903   2560
17.7953   2650
17.8003   2546
17.8053   2583
17.8103   2362
17.8153   2439
17.8203   2335
17.8253   2336
17.8303   2171
17.8353   2037
17.8403   2075
17.8454   2092
17.8504   2048
17.8554   1977
17.8604   1901
17.8654   1922
17.8704   1806
17.8754   1830
17.8804   1794
17.8854   1721
17.8904   1702
17.8954   1699
17.9004   1692
17.9054   1643
17.9104   1627
17.9154   1539
17.9204   1461
17.9254   1476
17.9304   1478
17.9354   1499
17.9404   1330
17.9454   1440
17.9504   1318
17.9554   1365
17.9604   1356
17.9654   1307
17.9705   1329
17.9755   1185
17.9805   1177
17.9855   1075
17.9905   1199
17.9955   1133
18.0005   1084
18.0055   1100
18.0105   1030
18.0155    941
18.0205   1016
18.0255    988
18.0305    995
18.0355    989
18.0405    973
18.0455    893
18.0505    897
18.0555    864
18.0605    848
18.0655    860
18.0705    883
18.0755    778
18.0805    774
18.0855    711
18.0905    745
18.0956    751
18.1006    809
18.1056    718
18.1106    717
18.1156    669
18.1206    692
18.1256    682
18.1306    674
18.1356    690
18.1406    620
18.1456    625
18.1506    622
18.1556    608
18.1606    577
18.1656    572
18.1706    569
18.1756    519
18.1806    534
18.1856    554
18.1906    556
18.1956    553
18.2006    488
18.2056    500
18.2106    485
18.2156    425
18.2207    465
18.2257    459
18.2307    461
18.2357    461
18.2407    475
18.2457    418
18.2507    421
18.2557    407
18.2607    394
18.2657    371
18.2707    425
18.2757    373
18.2807    383
18.2857    396
18.2907    360
18.2957    334
18.3007    369
18.3057    320
18.3107    345
18.3157    327
18.3207    363
18.3257    344
18.3307    350
18.3357    311
18.3407    320
18.3458    329
18.3508    330
18.3558    307
18.3608    305
18.3658    277
18.3708    304
18.3758    298
18.3808    290
18.3858    282
18.3908    338
18.3958    282
18.4008    302
18.4058    302
18.4108    280
18.4158    279
18.4208    282
18.4258    249
18.4308    304
18.4358    297
18.4408    272
18.4458    254
18.4508    290
18.4558    276
18.4608    250
18.4658    258
18.4709    240
18.4759    252
18.4809    243
18.4859    235
18.4909    250
18.4959    233
18.5009    253
18.5059    233
18.5109    231
18.5159    202
18.5209    214
18.5259    239
18.5309    218
18.5359    215
18.5409    216
18.5459    211
18.5509    203
18.5559    216
18.5609    166
18.5659    196
18.5709    190
18.5759    206
18.5809    185
18.5859    189
18.5909    171
 18.596    182
 18.601    158
 18.606    193
 18.611    160
 18.616    169
 18.621    171
 18.626    136
 18.631    166
 18.636    174
 18.641    161
 18.646    151
 18.651    163
 18.656    148
 18.661    161
 18.666    155
 18.671    166
 18.676    145
 18.681    148
 18.686    157
 18.691    154
 18.696    126
 18.701    147
 18.706    159
 18.711    142
 18.716    125
18.7211    122
18.7261    134
18.7311    149
18.7361    102
18.7411    121
18.7461    136
18.7511    123
18.7561    152
18.7611    147
18.7661    126
18.7711    120
18.7761    145
18.7811    142
18.7861    111
18.7911    106
18.7961    136
18.8011    113
18.8061    140
18.8111    123
18.8161    127
18.8211    111
18.8261    117
18.8311    125
18.8361    132
18.8411    126
18.8462    138
18.8512    132
18.8562    134
18.8612    127
18.8662    123
18.8712     99
18.8762    100
18.8812    114
18.8862    110
18.8912    123
18.8962    124
18.9012    133
18.9062    104
18.9112    109
18.9162     99
18.9212    103
18.9262    117
18.9312    112
18.9362    107
18.9412    101
18.9462    126
18.9512    102
18.9562    123
18.9612    108
18.9662    105
18.9713    111
18.9763    106
18.9813    113
18.9863    109
18.9913    124
18.9963    119
19.0013     88
19.0063    107
19.0113    118
19.0163    106
19.0213    104
19.0263    101
19.0313    113
19.0363    109
19.0413    123
19.0463    112
19.0513    120
19.0563     94
19.0613    122
19.0663    110
19.0713    122
19.0763     94
19.0813    120
19.0863    124
19.0913    100
19.0964     97
19.1014    120
19.1064    106
19.1114    120
19.1164    127
19.1214    118
19.1264    112
19.1314    131
19.1364    105
19.1414     95
19.1464     98
19.1514    105
19.1564     95
19.1614     97
19.1664    108
19.1714     99
19.1764     91
19.1814     93
19.1864    123
19.1914    105
19.1964     98
19.2014    103
19.2064    107
19.2114     96
19.2164    118
19.2215    101
19.2265     94
19.2315     92
19.2365    103
19.2415    107
19.2465     99
19.2515     90
19.2565    101
19.2615    116
19.2665    115
19.2715    128
19.2765    121
19.2815    112
19.2865    104
19.2915    107
19.2965    105
19.3015     88
19.3065    106
19.3115    107
19.3165    104
19.3215    113
19.3265     98
19.3315    124
19.3365    120
19.3415    111
19.3466    123
19.3516    126
19.3566    111
19.3616    124
19.3666    106
19.3716    122
19.3766    129
19.3816    141
19.3866    119
19.3916    128
19.3966    133
19.4016    123
19.4066    136
19.4116    130
19.4166    132
19.4216    146
19.4266    105
19.4316    128
19.4366    125
19.4416    120
19.4466    116
19.4516    137
19.4566    130
19.4616    129
19.4666    155
19.4717    148
19.4767    143
19.4817    145
19.4867    157
19.4917    148
19.4967    136
19.5017    131
19.5067    133
19.5117    150
19.5167    156
19.5217    145
19.5267    152
19.5317    136
19.5367    142
19.5417    134
19.5467    154
19.5517    152
19.5567    138
19.5617    166
19.5667    133
19.5717    163
19.5767    154
19.5817    155
19.5867    122
19.5917    192
19.5968    155
19.6018    151
19.6068    150
19.6118    172
19.6168    143
19.6218    142
19.6268    158
19.6318    127
19.6368    150
19.6418    149
19.6468    112
19.6518    140
19.6568    135
19.6618    138
19.6668    146
19.6718    134
19.6768    138
19.6818    124
19.6868    126
19.6918    145
19.6968    116
19.7018    114
19.7068    131
19.7118    118
19.7168    131
19.7219    112
19.7269    123
19.7319    118
19.7369    129
19.7419    121
19.7469    133
19.7519    137
19.7569    142
19.7619    130
19.7669    113
19.7719    129
19.7769    152
19.7819    112
19.7869    110
19.7919    135
19.7969    134
19.8019    141
19.8069    131
19.8119    121
19.8169    138
19.8219    123
19.8269    139
19.8319    109
19.8369    128
19.8419    151
 19.847    116
 19.852    128
 19.857    153
 19.862    160
 19.867    141
 19.872    119
 19.877    162
 19.882    121
 19.887    149
 19.892    120
 19.897    161
 19.902    143
 19.907    140
 19.912    136
 19.917    137
 19.922    150
 19.927    162
 19.932    153
 19.937    149
 19.942    151
 19.947    142
 19.952    155
 19.957    160
 19.962    145
 19.967    172
19.9721    162
19.9771    166
19.9821    181
19.9871    194
19.9921    191
19.9971    172
20.0021    177
20.0071      0
